pos,corr_resp,trials.thisRepN,trials.thisTrialN,trials.thisN,trials.thisIndex,fixation.started,line1.started,line2.started,line3.started,line4.started,fixation.stopped,probe.started,key_resp.started,key_resp.keys,key_resp.corr,key_resp.rt,key_resp.duration,participant,session,date,expName,psychopyVersion,frameRate,
-50,x,0,0,0,0,15.404029900004389,16.388502599991625,16.388502599991625,16.388502599991625,16.388502599991625,16.40378339999006,17.386652999994112,17.386652999994112,c,0,0.08162919999449514,None,085087,001,2023-10-17_19h25.08.681,lab in psych tut 4 quiz,2023.1.3,60.04181311900648,
150,v,0,1,1,1,17.488066799996886,18.486727099996642,18.486727099996642,18.486727099996642,18.486727099996642,18.486727099996642,19.486349899991183,19.486349899991183,z,0,1.2450664000061806,None,085087,001,2023-10-17_19h25.08.681,lab in psych tut 4 quiz,2023.1.3,60.04181311900648,
50,c,0,2,2,2,20.75450300000375,21.752591600001324,21.752591600001324,21.752591600001324,21.752591600001324,21.752591600001324,22.752418100004434,22.752418100004434,c,1,0.7444993999961298,None,085087,001,2023-10-17_19h25.08.681,lab in psych tut 4 quiz,2023.1.3,60.04181311900648,
-150,z,0,3,3,3,23.520398900000146,24.518853699992178,24.518853699992178,24.518853699992178,24.518853699992178,24.518853699992178,25.518721500004176,25.518721500004176,z,1,0.5006599000043934,None,085087,001,2023-10-17_19h25.08.681,lab in psych tut 4 quiz,2023.1.3,60.04181311900648,
-50,x,1,0,4,0,26.053458800000953,27.051800999994157,27.051800999994157,27.051800999994157,27.051800999994157,27.051800999994157,28.051349999994272,28.051349999994272,v,0,2.6922577999939676,None,085087,001,2023-10-17_19h25.08.681,lab in psych tut 4 quiz,2023.1.3,60.04181311900648,
150,v,1,1,5,1,30.76920209999662,31.767499800000223,31.767499800000223,31.767499800000223,31.767499800000223,31.767499800000223,32.767259799991734,32.767259799991734,z,0,2.4964399000018602,None,085087,001,2023-10-17_19h25.08.681,lab in psych tut 4 quiz,2023.1.3,60.04181311900648,
50,c,1,2,6,2,35.28461089999473,36.28317139999126,36.28317139999126,36.28317139999126,36.28317139999126,36.28317139999126,37.282864799999516,37.282864799999516,v,0,0.9345006000075955,None,085087,001,2023-10-17_19h25.08.681,lab in psych tut 4 quiz,2023.1.3,60.04181311900648,
-150,z,1,3,7,3,38.250884599998244,39.24934470000153,39.24934470000153,39.24934470000153,39.24934470000153,39.24934470000153,40.24911589999101,40.24911589999101,v,0,1.5560516999976244,None,085087,001,2023-10-17_19h25.08.681,lab in psych tut 4 quiz,2023.1.3,60.04181311900648,
-50,x,2,0,8,0,41.83322990000306,42.8318328000023,42.8318328000023,42.8318328000023,42.8318328000023,42.8318328000023,43.831650699998136,43.831650699998136,c,0,2.530637999996543,None,085087,001,2023-10-17_19h25.08.681,lab in psych tut 4 quiz,2023.1.3,60.04181311900648,
150,v,2,1,9,1,46.3824270000041,47.380978499990306,47.380978499990306,47.380978499990306,47.380978499990306,47.380978499990306,48.380599600001005,48.380599600001005,v,1,2.77283850000822,None,085087,001,2023-10-17_19h25.08.681,lab in psych tut 4 quiz,2023.1.3,60.04181311900648,
50,c,2,2,10,2,51.18140809999022,52.17990229999123,52.17990229999123,52.17990229999123,52.17990229999123,52.17990229999123,53.179836099996464,53.179836099996464,c,1,1.0311161999998149,None,085087,001,2023-10-17_19h25.08.681,lab in psych tut 4 quiz,2023.1.3,60.04181311900648,
-150,z,2,3,11,3,54.230732900003204,55.229215799990925,55.229215799990925,55.229215799990925,55.229215799990925,55.229215799990925,56.2293570000038,56.2293570000038,z,1,0.48991730000125244,None,085087,001,2023-10-17_19h25.08.681,lab in psych tut 4 quiz,2023.1.3,60.04181311900648,
-50,x,3,0,12,0,56.747111099990434,57.74587299999257,57.74587299999257,57.74587299999257,57.74587299999257,57.74587299999257,58.74536739999894,58.74536739999894,x,1,0.736540400001104,None,085087,001,2023-10-17_19h25.08.681,lab in psych tut 4 quiz,2023.1.3,60.04181311900648,
150,v,3,1,13,1,59.51342740000109,60.51159409999673,60.51159409999673,60.51159409999673,60.51159409999673,60.51159409999673,61.51140170000144,61.51140170000144,v,1,0.7334332000027644,None,085087,001,2023-10-17_19h25.08.681,lab in psych tut 4 quiz,2023.1.3,60.04181311900648,
50,c,3,2,14,2,62.26255610000226,63.26123839999491,63.26123839999491,63.26123839999491,63.26123839999491,63.26123839999491,64.26085009999224,64.26085009999224,c,1,0.8155600000027334,None,085087,001,2023-10-17_19h25.08.681,lab in psych tut 4 quiz,2023.1.3,60.04181311900648,
-150,z,3,3,15,3,65.09564780000073,66.09449649999442,66.09449649999442,66.09449649999442,66.09449649999442,66.09449649999442,67.0938016,67.0938016,z,1,0.34656799999356735,None,085087,001,2023-10-17_19h25.08.681,lab in psych tut 4 quiz,2023.1.3,60.04181311900648,
-50,x,4,0,16,0,67.46164159999171,68.46008129999973,68.46008129999973,68.46008129999973,68.46008129999973,68.46008129999973,69.4599409999937,69.4599409999937,x,1,0.6445196999993641,None,085087,001,2023-10-17_19h25.08.681,lab in psych tut 4 quiz,2023.1.3,60.04181311900648,
150,v,4,1,17,1,70.12777369999094,71.12629440000455,71.12629440000455,71.12629440000455,71.12629440000455,71.12629440000455,72.12593100000231,72.12593100000231,v,1,0.44390260000363924,None,085087,001,2023-10-17_19h25.08.681,lab in psych tut 4 quiz,2023.1.3,60.04181311900648,
50,c,4,2,18,2,72.59393469999486,73.59252289999858,73.59252289999858,73.59252289999858,73.59252289999858,73.59252289999858,74.59248439999647,74.59248439999647,v,0,0.5111493000003975,None,085087,001,2023-10-17_19h25.08.681,lab in psych tut 4 quiz,2023.1.3,60.04181311900648,
-150,z,4,3,19,3,75.12679850000131,76.12570079999568,76.12570079999568,76.12570079999568,76.12570079999568,76.12570079999568,77.12545320000208,77.12545320000208,z,1,0.44998830000986345,None,085087,001,2023-10-17_19h25.08.681,lab in psych tut 4 quiz,2023.1.3,60.04181311900648,
-50,x,5,0,20,0,77.59321540000383,78.59156770000118,78.59156770000118,78.59156770000118,78.59156770000118,78.59156770000118,79.59127469999657,79.59127469999657,x,1,0.5438493999972707,None,085087,001,2023-10-17_19h25.08.681,lab in psych tut 4 quiz,2023.1.3,60.04181311900648,
150,v,5,1,21,1,80.15944429999217,81.15748549999262,81.15748549999262,81.15748549999262,81.15748549999262,81.15748549999262,82.15743399999337,82.15743399999337,v,1,0.5760488999949303,None,085087,001,2023-10-17_19h25.08.681,lab in psych tut 4 quiz,2023.1.3,60.04181311900648,
50,c,5,2,22,2,82.75865160000103,83.7571723000001,83.7571723000001,83.7571723000001,83.7571723000001,83.7571723000001,84.7569053999905,84.7569053999905,c,1,0.6757690999947954,None,085087,001,2023-10-17_19h25.08.681,lab in psych tut 4 quiz,2023.1.3,60.04181311900648,
-150,z,5,3,23,3,85.45811110000068,86.45660579999094,86.45660579999094,86.45660579999094,86.45660579999094,86.45660579999094,87.45643219999329,87.45643219999329,z,1,0.4808746000053361,None,085087,001,2023-10-17_19h25.08.681,lab in psych tut 4 quiz,2023.1.3,60.04181311900648,
-50,x,6,0,24,0,87.95794279999973,88.95621170000231,88.95621170000231,88.95621170000231,88.95621170000231,88.95621170000231,89.95590580000135,89.95590580000135,x,1,0.681749099996523,None,085087,001,2023-10-17_19h25.08.681,lab in psych tut 4 quiz,2023.1.3,60.04181311900648,
150,v,6,1,25,1,90.65714110000408,91.6554102999944,91.6554102999944,91.6554102999944,91.6554102999944,91.6554102999944,92.65567629999714,92.65567629999714,v,1,0.47791800000413787,None,085087,001,2023-10-17_19h25.08.681,lab in psych tut 4 quiz,2023.1.3,60.04181311900648,
50,c,6,2,26,2,93.15691059999517,94.15530909999507,94.15530909999507,94.15530909999507,94.15530909999507,94.15530909999507,95.15487299999222,95.15487299999222,c,1,0.4730882000148995,None,085087,001,2023-10-17_19h25.08.681,lab in psych tut 4 quiz,2023.1.3,60.04181311900648,
-150,z,6,3,27,3,95.65605029999278,96.65462259999185,96.65462259999185,96.65462259999185,96.65462259999185,96.65462259999185,97.65448019999894,97.65448019999894,z,1,0.6164603000070201,None,085087,001,2023-10-17_19h25.08.681,lab in psych tut 4 quiz,2023.1.3,60.04181311900648,
-50,x,7,0,28,0,98.28936009999597,99.28741750000336,99.28741750000336,99.28741750000336,99.28741750000336,99.28741750000336,100.28723339999851,100.28723339999851,x,1,0.6614507000049343,None,085087,001,2023-10-17_19h25.08.681,lab in psych tut 4 quiz,2023.1.3,60.04181311900648,
150,v,7,1,29,1,100.9718850999925,101.97017529999721,101.97017529999721,101.97017529999721,101.97017529999721,101.97017529999721,102.96987459999218,102.96987459999218,v,1,0.3719388000026811,None,085087,001,2023-10-17_19h25.08.681,lab in psych tut 4 quiz,2023.1.3,60.04181311900648,
50,c,7,2,30,2,103.3715327999962,104.36978670000099,104.36978670000099,104.36978670000099,104.36978670000099,104.36978670000099,105.36953680000443,105.36953680000443,c,1,0.5889821000018856,None,085087,001,2023-10-17_19h25.08.681,lab in psych tut 4 quiz,2023.1.3,60.04181311900648,
-150,z,7,3,31,3,105.98756700000376,106.98594620000222,106.98594620000222,106.98594620000222,106.98594620000222,106.98594620000222,107.9856654000032,107.9856654000032,z,1,0.4203854999941541,None,085087,001,2023-10-17_19h25.08.681,lab in psych tut 4 quiz,2023.1.3,60.04181311900648,
-50,x,8,0,32,0,108.43701389999478,109.43539339999552,109.43539339999552,109.43539339999552,109.43539339999552,109.43539339999552,110.43541900000127,110.43541900000127,x,1,0.6679622999945423,None,085087,001,2023-10-17_19h25.08.681,lab in psych tut 4 quiz,2023.1.3,60.04181311900648,
150,v,8,1,33,1,111.13664929999504,112.1350461999973,112.1350461999973,112.1350461999973,112.1350461999973,112.1350461999973,113.1346240999992,113.1346240999992,v,1,0.4588363999937428,None,085087,001,2023-10-17_19h25.08.681,lab in psych tut 4 quiz,2023.1.3,60.04181311900648,
50,c,8,2,34,2,113.61941939999815,114.61773169999651,114.61773169999651,114.61773169999651,114.61773169999651,114.61773169999651,115.61747299999115,115.61747299999115,c,1,0.5253523999999743,None,085087,001,2023-10-17_19h25.08.681,lab in psych tut 4 quiz,2023.1.3,60.04181311900648,
-150,z,8,3,35,3,116.16835469999933,117.16723209999327,117.16723209999327,117.16723209999327,117.16723209999327,117.16723209999327,118.1668195999955,118.1668195999955,z,1,0.44449800001166295,None,085087,001,2023-10-17_19h25.08.681,lab in psych tut 4 quiz,2023.1.3,60.04181311900648,
-50,x,9,0,36,0,118.63504759999341,119.63345900000422,119.63345900000422,119.63345900000422,119.63345900000422,119.63345900000422,120.63317269999243,120.63317269999243,x,1,0.7854916999931447,None,085087,001,2023-10-17_19h25.08.681,lab in psych tut 4 quiz,2023.1.3,60.04181311900648,
150,v,9,1,37,1,121.45124369999394,122.44951599999331,122.44951599999331,122.44951599999331,122.44951599999331,122.44951599999331,123.44925229999353,123.44925229999353,v,1,0.6829941000032704,None,085087,001,2023-10-17_19h25.08.681,lab in psych tut 4 quiz,2023.1.3,60.04181311900648,
50,c,9,2,38,2,124.1506054999918,125.14907010000024,125.14907010000024,125.14907010000024,125.14907010000024,125.14907010000024,126.1486581999925,126.1486581999925,c,1,0.4536911000031978,None,085087,001,2023-10-17_19h25.08.681,lab in psych tut 4 quiz,2023.1.3,60.04181311900648,
-150,z,9,3,39,3,126.63345399999525,127.63207369999145,127.63207369999145,127.63207369999145,127.63207369999145,127.63207369999145,128.63172989999293,128.63172989999293,z,1,0.35866579999856185,None,085087,001,2023-10-17_19h25.08.681,lab in psych tut 4 quiz,2023.1.3,60.04181311900648,
-50,x,10,0,40,0,129.0162971999962,130.01462909999827,130.01462909999827,130.01462909999827,130.01462909999827,130.01462909999827,131.01443519999157,131.01443519999157,c,0,0.37012020000838675,None,085087,001,2023-10-17_19h25.08.681,lab in psych tut 4 quiz,2023.1.3,60.04181311900648,
150,v,10,1,41,1,131.41547549999086,132.4142767000012,132.4142767000012,132.4142767000012,132.4142767000012,132.4142767000012,133.4139692000026,133.4139692000026,v,1,0.5577882999932626,None,085087,001,2023-10-17_19h25.08.681,lab in psych tut 4 quiz,2023.1.3,60.04181311900648,
50,c,10,2,42,2,133.99863010000263,134.997028400001,134.997028400001,134.997028400001,134.997028400001,134.997028400001,135.9969548999943,135.9969548999943,c,1,0.5522858000040287,None,085087,001,2023-10-17_19h25.08.681,lab in psych tut 4 quiz,2023.1.3,60.04181311900648,
-150,z,10,3,43,3,136.58133869999438,137.57988760000444,137.57988760000444,137.57988760000444,137.57988760000444,137.57988760000444,138.5796890999918,138.5796890999918,z,1,0.44523800000024494,None,085087,001,2023-10-17_19h25.08.681,lab in psych tut 4 quiz,2023.1.3,60.04181311900648,
-50,x,11,0,44,0,139.0478143999935,140.0461260000011,140.0461260000011,140.0461260000011,140.0461260000011,140.0461260000011,141.04585880000377,141.04585880000377,x,1,0.6700092000100994,None,085087,001,2023-10-17_19h25.08.681,lab in psych tut 4 quiz,2023.1.3,60.04181311900648,
150,v,11,1,45,1,141.746942400001,142.74548349999532,142.74548349999532,142.74548349999532,142.74548349999532,142.74548349999532,143.7457216999901,143.7457216999901,v,1,0.421643599998788,None,085087,001,2023-10-17_19h25.08.681,lab in psych tut 4 quiz,2023.1.3,60.04181311900648,
50,c,11,2,46,2,144.19701940000232,145.1954579000012,145.1954579000012,145.1954579000012,145.1954579000012,145.1954579000012,146.1947755000001,146.1947755000001,c,1,0.5308197999984259,None,085087,001,2023-10-17_19h25.08.681,lab in psych tut 4 quiz,2023.1.3,60.04181311900648,
-150,z,11,3,47,3,146.7461137999926,147.74455839999428,147.74455839999428,147.74455839999428,147.74455839999428,147.74455839999428,148.74444680000306,148.74444680000306,z,1,0.44301900001300965,None,085087,001,2023-10-17_19h25.08.681,lab in psych tut 4 quiz,2023.1.3,60.04181311900648,
-50,x,12,0,48,0,149.21237799999653,150.21060109999962,150.21060109999962,150.21060109999962,150.21060109999962,150.21060109999962,151.21050749999995,151.21050749999995,x,1,0.5480997999984538,None,085087,001,2023-10-17_19h25.08.681,lab in psych tut 4 quiz,2023.1.3,60.04181311900648,
150,v,12,1,49,1,151.77804180000385,152.77695830000448,152.77695830000448,152.77695830000448,152.77695830000448,152.77695830000448,153.77651509999123,153.77651509999123,v,1,0.5602524999994785,None,085087,001,2023-10-17_19h25.08.681,lab in psych tut 4 quiz,2023.1.3,60.04181311900648,
50,c,12,2,50,2,154.36118469999928,155.35968229999708,155.35968229999708,155.35968229999708,155.35968229999708,155.35968229999708,156.3594652000029,156.3594652000029,c,1,0.6800326000084169,None,085087,001,2023-10-17_19h25.08.681,lab in psych tut 4 quiz,2023.1.3,60.04181311900648,
-150,z,12,3,51,3,157.0607835999981,158.059248199992,158.059248199992,158.059248199992,158.059248199992,158.059248199992,159.05901630000153,159.05901630000153,z,1,0.5804433000012068,None,085087,001,2023-10-17_19h25.08.681,lab in psych tut 4 quiz,2023.1.3,60.04181311900648,
-50,x,13,0,52,0,159.66019409999717,160.65873060000013,160.65873060000013,160.65873060000013,160.65873060000013,160.65873060000013,161.65833849999763,161.65833849999763,x,1,0.8267820000037318,None,085087,001,2023-10-17_19h25.08.681,lab in psych tut 4 quiz,2023.1.3,60.04181311900648,
150,v,13,1,53,1,162.50965500000166,163.50821279999218,163.50821279999218,163.50821279999218,163.50821279999218,163.50821279999218,164.50774610000371,164.50774610000371,v,1,0.3695372999936808,None,085087,001,2023-10-17_19h25.08.681,lab in psych tut 4 quiz,2023.1.3,60.04181311900648,
50,c,13,2,54,2,164.90905859999475,165.9075889999949,165.9075889999949,165.9075889999949,165.9075889999949,165.9075889999949,166.90733709999768,166.90733709999768,c,1,0.5303680000070017,None,085087,001,2023-10-17_19h25.08.681,lab in psych tut 4 quiz,2023.1.3,60.04181311900648,
-150,z,13,3,55,3,167.4587065999949,168.4570681000041,168.4570681000041,168.4570681000041,168.4570681000041,168.4570681000041,169.4568866000045,169.4568866000045,z,1,0.40759600000455976,None,085087,001,2023-10-17_19h25.08.681,lab in psych tut 4 quiz,2023.1.3,60.04181311900648,
-50,x,14,0,56,0,169.89140110000153,170.89042870000412,170.89042870000412,170.89042870000412,170.89042870000412,170.89042870000412,171.8898288999917,171.8898288999917,x,1,0.769841200002702,None,085087,001,2023-10-17_19h25.08.681,lab in psych tut 4 quiz,2023.1.3,60.04181311900648,
150,v,14,1,57,1,172.69098879999365,173.68969519999519,173.68969519999519,173.68969519999519,173.68969519999519,173.68969519999519,174.68918980000308,174.68918980000308,v,1,0.5614866000105394,None,085087,001,2023-10-17_19h25.08.681,lab in psych tut 4 quiz,2023.1.3,60.04181311900648,
50,c,14,2,58,2,175.27378139999928,176.27252129999397,176.27252129999397,176.27252129999397,176.27252129999397,176.27252129999397,177.27175210000132,177.27175210000132,c,1,0.410184800013667,None,085087,001,2023-10-17_19h25.08.681,lab in psych tut 4 quiz,2023.1.3,60.04181311900648,
-150,z,14,3,59,3,177.7065747000015,178.70522269999492,178.70522269999492,178.70522269999492,178.70522269999492,178.70522269999492,179.704882799997,179.704882799997,z,1,0.3860679000063101,None,085087,001,2023-10-17_19h25.08.681,lab in psych tut 4 quiz,2023.1.3,60.04181311900648,
-50,x,15,0,60,0,180.12259250000352,181.12133690000337,181.12133690000337,181.12133690000337,181.12133690000337,181.12133690000337,182.12091050000163,182.12091050000163,x,1,0.3953875000006519,None,085087,001,2023-10-17_19h25.08.681,lab in psych tut 4 quiz,2023.1.3,60.04181311900648,
150,v,15,1,61,1,182.5391524000006,183.53752800000075,183.53752800000075,183.53752800000075,183.53752800000075,183.53752800000075,184.53735459999007,184.53735459999007,v,1,0.3473581000143895,None,085087,001,2023-10-17_19h25.08.681,lab in psych tut 4 quiz,2023.1.3,60.04181311900648,
50,c,15,2,62,2,184.905273700002,185.90358279999055,185.90358279999055,185.90358279999055,185.90358279999055,185.90358279999055,186.90367420000257,186.90367420000257,c,1,0.4106095000024652,None,085087,001,2023-10-17_19h25.08.681,lab in psych tut 4 quiz,2023.1.3,60.04181311900648,
-150,z,15,3,63,3,187.338193699994,188.33658750000177,188.33658750000177,188.33658750000177,188.33658750000177,188.33658750000177,189.33625749999192,189.33625749999192,z,1,0.3325788000074681,None,085087,001,2023-10-17_19h25.08.681,lab in psych tut 4 quiz,2023.1.3,60.04181311900648,
-50,x,16,0,64,0,189.68773019999207,190.68611029999738,190.68611029999738,190.68611029999738,190.68611029999738,190.68611029999738,191.6857869999949,191.6857869999949,x,1,0.28050490000168793,None,085087,001,2023-10-17_19h25.08.681,lab in psych tut 4 quiz,2023.1.3,60.04181311900648,
150,v,16,1,65,1,191.98734429999604,192.98571749999246,192.98571749999246,192.98571749999246,192.98571749999246,192.98571749999246,193.9853826000035,193.9853826000035,v,1,0.2793174000107683,None,085087,001,2023-10-17_19h25.08.681,lab in psych tut 4 quiz,2023.1.3,60.04181311900648,
50,c,16,2,66,2,194.28659649999463,195.28516679999302,195.28516679999302,195.28516679999302,195.28516679999302,195.28516679999302,196.2853013999993,196.2853013999993,c,1,0.33646829999634065,None,085087,001,2023-10-17_19h25.08.681,lab in psych tut 4 quiz,2023.1.3,60.04181311900648,
-150,z,16,3,67,3,196.65281639999012,197.65141469999799,197.65141469999799,197.65141469999799,197.65141469999799,197.65141469999799,198.6513214000006,198.6513214000006,z,1,0.2722661000007065,None,085087,001,2023-10-17_19h25.08.681,lab in psych tut 4 quiz,2023.1.3,60.04181311900648,
-50,x,17,0,68,0,198.95273809999344,199.95087430000422,199.95087430000422,199.95087430000422,199.95087430000422,199.95087430000422,200.95066069999302,200.95066069999302,x,1,0.38412699999753386,None,085087,001,2023-10-17_19h25.08.681,lab in psych tut 4 quiz,2023.1.3,60.04181311900648,
150,v,17,1,69,1,201.36883669999952,202.36701529999846,202.36701529999846,202.36701529999846,202.36701529999846,202.36701529999846,203.36666489999334,203.36666489999334,v,1,0.07650230001308955,None,085087,001,2023-10-17_19h25.08.681,lab in psych tut 4 quiz,2023.1.3,60.04181311900648,
50,c,17,2,70,2,203.46781689999625,204.466528799996,204.466528799996,204.466528799996,204.466528799996,204.466528799996,205.46623859999818,205.46623859999818,c,1,0.3371999999944819,None,085087,001,2023-10-17_19h25.08.681,lab in psych tut 4 quiz,2023.1.3,60.04181311900648,
-150,z,17,3,71,3,205.83465079999587,206.8330813999928,206.8330813999928,206.8330813999928,206.8330813999928,206.8330813999928,207.83266909999656,207.83266909999656,z,1,0.17231579999497626,None,085087,001,2023-10-17_19h25.08.681,lab in psych tut 4 quiz,2023.1.3,60.04181311900648,
-50,x,18,0,72,0,208.03389769999194,209.0323356000008,209.0323356000008,209.0323356000008,209.0323356000008,209.0323356000008,210.03220899999724,210.03220899999724,x,1,0.344006100014667,None,085087,001,2023-10-17_19h25.08.681,lab in psych tut 4 quiz,2023.1.3,60.04181311900648,
150,v,18,1,73,1,210.40034829999786,211.39876739999454,211.39876739999454,211.39876739999454,211.39876739999454,211.39876739999454,212.3984724000038,212.3984724000038,v,1,0.4665734000009252,None,085087,001,2023-10-17_19h25.08.681,lab in psych tut 4 quiz,2023.1.3,60.04181311900648,
50,c,18,2,74,2,212.88301219999266,213.88145319999603,213.88145319999603,213.88145319999603,213.88145319999603,213.88145319999603,214.88144739999552,214.88144739999552,c,1,0.6043687000055797,None,085087,001,2023-10-17_19h25.08.681,lab in psych tut 4 quiz,2023.1.3,60.04181311900648,
-150,z,18,3,75,3,215.51595200000156,216.51447320000443,216.51447320000443,216.51447320000443,216.51447320000443,216.51447320000443,217.51408059999812,217.51408059999812,z,1,0.32932510001410265,None,085087,001,2023-10-17_19h25.08.681,lab in psych tut 4 quiz,2023.1.3,60.04181311900648,
-50,x,19,0,76,0,217.86506969999755,218.86395620000258,218.86395620000258,218.86395620000258,218.86395620000258,218.86395620000258,219.8637211000023,219.8637211000023,c,0,0.5383520000032149,None,085087,001,2023-10-17_19h25.08.681,lab in psych tut 4 quiz,2023.1.3,60.04181311900648,
150,v,19,1,77,1,220.43145540000114,221.4299258999963,221.4299258999963,221.4299258999963,221.4299258999963,221.4299258999963,222.42990229999123,222.42990229999123,v,1,0.49981739999202546,None,085087,001,2023-10-17_19h25.08.681,lab in psych tut 4 quiz,2023.1.3,60.04181311900648,
50,c,19,2,78,2,222.94775500000105,223.94669470000372,223.94669470000372,223.94669470000372,223.94669470000372,223.94669470000372,224.94596029999957,224.94596029999957,c,1,0.5118900999950711,None,085087,001,2023-10-17_19h25.08.681,lab in psych tut 4 quiz,2023.1.3,60.04181311900648,
-150,z,19,3,79,3,225.48069689999102,226.4787215999968,226.4787215999968,226.4787215999968,226.4787215999968,226.4787215999968,227.47852319999947,227.47852319999947,z,1,0.4200840999983484,None,085087,001,2023-10-17_19h25.08.681,lab in psych tut 4 quiz,2023.1.3,60.04181311900648,
-50,x,20,0,80,0,227.92995219999284,228.92830699999467,228.92830699999467,228.92830699999467,228.92830699999467,228.92830699999467,229.92838949999714,229.92838949999714,x,1,0.7620395000121789,None,085087,001,2023-10-17_19h25.08.681,lab in psych tut 4 quiz,2023.1.3,60.04181311900648,
150,v,20,1,81,1,230.71285019999777,231.71137879999878,231.71137879999878,231.71137879999878,231.71137879999878,231.71137879999878,232.71111720000044,232.71111720000044,v,1,0.7410731999989366,None,085087,001,2023-10-17_19h25.08.681,lab in psych tut 4 quiz,2023.1.3,60.04181311900648,
50,c,20,2,82,2,233.47908409999218,234.47724310000194,234.47724310000194,234.47724310000194,234.47724310000194,234.47724310000194,235.48235839999688,235.48235839999688,c,1,1.0126439000014216,None,085087,001,2023-10-17_19h25.08.681,lab in psych tut 4 quiz,2023.1.3,60.04181311900648,
-150,z,20,3,83,3,236.51327789999777,237.5111057000031,237.5111057000031,237.5111057000031,237.5111057000031,237.5266910999926,238.5099196999945,238.5099196999945,z,1,0.5859693000093102,None,085087,001,2023-10-17_19h25.08.681,lab in psych tut 4 quiz,2023.1.3,60.04181311900648,
-50,x,21,0,84,0,239.12789289999637,240.12635669999872,240.12635669999872,240.12635669999872,240.12635669999872,240.12635669999872,241.1260626000003,241.1260626000003,x,1,0.6417440999939572,None,085087,001,2023-10-17_19h25.08.681,lab in psych tut 4 quiz,2023.1.3,60.04181311900648,
150,v,21,1,85,1,241.79387100000167,242.79234569999971,242.79234569999971,242.79234569999971,242.79234569999971,242.79234569999971,243.79214579999098,243.79214579999098,v,1,0.3534418000053847,None,085087,001,2023-10-17_19h25.08.681,lab in psych tut 4 quiz,2023.1.3,60.04181311900648,
50,c,21,2,86,2,244.1765630000009,245.1751568000036,245.1751568000036,245.1751568000036,245.1751568000036,245.1751568000036,246.1751363999938,246.1751363999938,c,1,0.6328237999987323,None,085087,001,2023-10-17_19h25.08.681,lab in psych tut 4 quiz,2023.1.3,60.04181311900648,
-150,z,21,3,87,3,246.82633870000427,247.82482589999563,247.82482589999563,247.82482589999563,247.82482589999563,247.82482589999563,248.82457379999687,248.82457379999687,z,1,0.5069985000009183,None,085087,001,2023-10-17_19h25.08.681,lab in psych tut 4 quiz,2023.1.3,60.04181311900648,
-50,x,22,0,88,0,249.35919459999423,250.3574818999914,250.3574818999914,250.3574818999914,250.3574818999914,250.3574818999914,251.3574726999941,251.3574726999941,x,1,0.527656999998726,None,085087,001,2023-10-17_19h25.08.681,lab in psych tut 4 quiz,2023.1.3,60.04181311900648,
150,v,22,1,89,1,251.9085955999908,252.90735769999446,252.90735769999446,252.90735769999446,252.90735769999446,252.90735769999446,253.90686899999855,253.90686899999855,v,1,0.40374760000850074,None,085087,001,2023-10-17_19h25.08.681,lab in psych tut 4 quiz,2023.1.3,60.04181311900648,
50,c,22,2,90,2,254.3415110999922,255.3398570999998,255.3398570999998,255.3398570999998,255.3398570999998,255.3398570999998,256.33970299999055,256.33970299999055,c,1,0.5631687999994028,None,085087,001,2023-10-17_19h25.08.681,lab in psych tut 4 quiz,2023.1.3,60.04181311900648,
-150,z,22,3,91,3,256.92424680000113,257.9227619000012,257.9227619000012,257.9227619000012,257.9227619000012,257.9227619000012,258.92262660000415,258.92262660000415,z,1,0.523676600001636,None,085087,001,2023-10-17_19h25.08.681,lab in psych tut 4 quiz,2023.1.3,60.04181311900648,
-50,x,23,0,92,0,259.47345769999083,260.4720764999947,260.4720764999947,260.4720764999947,260.4720764999947,260.4720764999947,261.4721394999942,261.4721394999942,c,0,0.49249540000164416,None,085087,001,2023-10-17_19h25.08.681,lab in psych tut 4 quiz,2023.1.3,60.04181311900648,
150,v,23,1,93,1,261.98974839999573,262.9883736999909,262.9883736999909,262.9883736999909,262.9883736999909,262.9883736999909,263.9882910000015,263.9882910000015,v,1,0.7789520000078483,None,085087,001,2023-10-17_19h25.08.681,lab in psych tut 4 quiz,2023.1.3,60.04181311900648,
50,c,23,2,94,2,264.78947809999227,265.7879868000018,265.7879868000018,265.7879868000018,265.7879868000018,265.7879868000018,266.78777029999765,266.78777029999765,c,1,0.5637865000026068,None,085087,001,2023-10-17_19h25.08.681,lab in psych tut 4 quiz,2023.1.3,60.04181311900648,
-150,z,23,3,95,3,267.37223949999316,268.3704990999977,268.3704990999977,268.3704990999977,268.3704990999977,268.3704990999977,269.3705140999955,269.3705140999955,z,1,0.41814229999727104,None,085087,001,2023-10-17_19h25.08.681,lab in psych tut 4 quiz,2023.1.3,60.04181311900648,
-50,x,24,0,96,0,269.82187420000264,270.8201621999906,270.8201621999906,270.8201621999906,270.8201621999906,270.8201621999906,271.8200017999916,271.8200017999916,x,1,0.29842390000703745,None,085087,001,2023-10-17_19h25.08.681,lab in psych tut 4 quiz,2023.1.3,60.04181311900648,
150,v,24,1,97,1,272.1379290000041,273.1363657000038,273.1363657000038,273.1363657000038,273.1363657000038,273.1363657000038,274.13593550000223,274.13593550000223,v,1,0.5394597000122303,None,085087,001,2023-10-17_19h25.08.681,lab in psych tut 4 quiz,2023.1.3,60.04181311900648,
50,c,24,2,98,2,274.7040027000039,275.7025120000035,275.7025120000035,275.7025120000035,275.7025120000035,275.7025120000035,276.7024340999924,276.7024340999924,c,1,0.4119208000047365,None,085087,001,2023-10-17_19h25.08.681,lab in psych tut 4 quiz,2023.1.3,60.04181311900648,
-150,z,24,3,99,3,277.13671890000114,278.1354161999916,278.1354161999916,278.1354161999916,278.1354161999916,278.1354161999916,279.1351705999987,279.1351705999987,z,1,0.4052403000096092,None,085087,001,2023-10-17_19h25.08.681,lab in psych tut 4 quiz,2023.1.3,60.04181311900648,
-50,x,25,0,100,0,279.569940100002,280.5683648999984,280.5683648999984,280.5683648999984,280.5683648999984,280.5683648999984,281.56796499999473,281.56796499999473,x,1,0.35563370000454597,None,085087,001,2023-10-17_19h25.08.681,lab in psych tut 4 quiz,2023.1.3,60.04181311900648,
150,v,25,1,101,1,281.95283290000225,282.9512374000042,282.9512374000042,282.9512374000042,282.9512374000042,282.9512374000042,283.9507355999958,283.9507355999958,v,1,0.3917397000041092,None,085087,001,2023-10-17_19h25.08.681,lab in psych tut 4 quiz,2023.1.3,60.04181311900648,
50,c,25,2,102,2,284.3690649999917,285.3672499999957,285.3672499999957,285.3672499999957,285.3672499999957,285.3672499999957,286.3670273000025,286.3670273000025,c,1,0.3283787999971537,None,085087,001,2023-10-17_19h25.08.681,lab in psych tut 4 quiz,2023.1.3,60.04181311900648,
-150,z,25,3,103,3,286.71847150000394,287.71694139999454,287.71694139999454,287.71694139999454,287.71694139999454,287.71694139999454,288.71669129999646,288.71669129999646,z,1,0.27252410000073723,None,085087,001,2023-10-17_19h25.08.681,lab in psych tut 4 quiz,2023.1.3,60.04181311900648,
-50,x,26,0,104,0,289.0181343000004,290.016426599992,290.016426599992,290.016426599992,290.016426599992,290.016426599992,291.01621210000303,291.01621210000303,x,1,0.2081292999937432,None,085087,001,2023-10-17_19h25.08.681,lab in psych tut 4 quiz,2023.1.3,60.04181311900648,
150,v,26,1,105,1,291.25096209999174,292.24922729999525,292.24922729999525,292.24922729999525,292.24922729999525,292.24922729999525,293.2520807999972,293.2520807999972,v,1,0.3988390000013169,None,085087,001,2023-10-17_19h25.08.681,lab in psych tut 4 quiz,2023.1.3,60.04181311900648,
50,c,26,2,106,2,293.68365559999074,294.6823025999911,294.6823025999911,294.6823025999911,294.6823025999911,294.6823025999911,295.68194239999866,295.68194239999866,c,1,0.4503130999946734,None,085087,001,2023-10-17_19h25.08.681,lab in psych tut 4 quiz,2023.1.3,60.04181311900648,
-150,z,26,3,107,3,296.1500568999909,297.14835609999136,297.14835609999136,297.14835609999136,297.14835609999136,297.14835609999136,298.1480556000024,298.1480556000024,z,1,1.1985057999991113,None,085087,001,2023-10-17_19h25.08.681,lab in psych tut 4 quiz,2023.1.3,60.04181311900648,
-50,x,27,0,108,0,299.3660693999991,300.3643400000001,300.3643400000001,300.3643400000001,300.3643400000001,300.3643400000001,301.36405509999895,301.36405509999895,x,1,0.35799029999179766,None,085087,001,2023-10-17_19h25.08.681,lab in psych tut 4 quiz,2023.1.3,60.04181311900648,
150,v,27,1,109,1,301.748403199992,302.74723729999096,302.74723729999096,302.74723729999096,302.74723729999096,302.74723729999096,303.7468430000008,303.7468430000008,v,1,0.4649256999982754,None,085087,001,2023-10-17_19h25.08.681,lab in psych tut 4 quiz,2023.1.3,60.04181311900648,
50,c,27,2,110,2,304.23159029999806,305.2299294999975,305.2299294999975,305.2299294999975,305.2299294999975,305.2299294999975,306.22977869999886,306.22977869999886,c,1,0.20536810001067352,None,085087,001,2023-10-17_19h25.08.681,lab in psych tut 4 quiz,2023.1.3,60.04181311900648,
-150,z,27,3,111,3,306.46452589999535,307.4628684999916,307.4628684999916,307.4628684999916,307.4628684999916,307.4628684999916,308.4627562999958,308.4627562999958,z,1,0.4762914000020828,None,085087,001,2023-10-17_19h25.08.681,lab in psych tut 4 quiz,2023.1.3,60.04181311900648,
-50,x,28,0,112,0,308.9639782000013,309.9624627000012,309.9624627000012,309.9624627000012,309.9624627000012,309.9624627000012,310.9623408000043,310.9623408000043,x,1,0.4212703999946825,None,085087,001,2023-10-17_19h25.08.681,lab in psych tut 4 quiz,2023.1.3,60.04181311900648,
150,v,28,1,113,1,311.4134778000007,312.41202989999147,312.41202989999147,312.41202989999147,312.41202989999147,312.41202989999147,313.4117791000026,313.4117791000026,v,1,0.6860394000104861,None,085087,001,2023-10-17_19h25.08.681,lab in psych tut 4 quiz,2023.1.3,60.04181311900648,
50,c,28,2,114,2,314.12957129999995,315.1281330999918,315.1281330999918,315.1281330999918,315.1281330999918,315.1281330999918,316.127848899996,316.127848899996,c,1,0.32046529999934137,None,085087,001,2023-10-17_19h25.08.681,lab in psych tut 4 quiz,2023.1.3,60.04181311900648,
-150,z,28,3,115,3,316.47908609999286,317.4775568999903,317.4775568999903,317.4775568999903,317.4775568999903,317.4775568999903,318.4773772999906,318.4773772999906,z,1,0.41899869999906514,None,085087,001,2023-10-17_19h25.08.681,lab in psych tut 4 quiz,2023.1.3,60.04181311900648,
-50,x,29,0,116,0,318.92853239999386,319.9270867000014,319.9270867000014,319.9270867000014,319.9270867000014,319.9270867000014,320.927079599991,320.927079599991,x,1,0.3456354999943869,None,085087,001,2023-10-17_19h25.08.681,lab in psych tut 4 quiz,2023.1.3,60.04181311900648,
150,v,29,1,117,1,321.29486959999485,322.2933980999951,322.2933980999951,322.2933980999951,322.2933980999951,322.2933980999951,323.2933095999906,323.2933095999906,v,1,0.503326800011564,None,085087,001,2023-10-17_19h25.08.681,lab in psych tut 4 quiz,2023.1.3,60.04181311900648,
50,c,29,2,118,2,323.82768119999673,324.826066499998,324.826066499998,324.826066499998,324.826066499998,324.826066499998,325.8260115000012,325.8260115000012,c,1,0.39041929999075364,None,085087,001,2023-10-17_19h25.08.681,lab in psych tut 4 quiz,2023.1.3,60.04181311900648,
-150,z,29,3,119,3,326.24398780000047,327.242568200003,327.242568200003,327.242568200003,327.242568200003,327.242568200003,328.2422013000032,328.2422013000032,z,1,0.3529738999932306,None,085087,001,2023-10-17_19h25.08.681,lab in psych tut 4 quiz,2023.1.3,60.04181311900648,
-50,x,30,0,120,0,328.6267882999964,329.6252337000042,329.6252337000042,329.6252337000042,329.6252337000042,329.6252337000042,330.6251809999958,330.6251809999958,x,1,0.3423202999983914,None,085087,001,2023-10-17_19h25.08.681,lab in psych tut 4 quiz,2023.1.3,60.04181311900648,
150,v,30,1,121,1,330.9928851000004,331.99130490000243,331.99130490000243,331.99130490000243,331.99130490000243,331.99130490000243,332.99119139999675,332.99119139999675,v,1,0.5656210000015562,None,085087,001,2023-10-17_19h25.08.681,lab in psych tut 4 quiz,2023.1.3,60.04181311900648,
50,c,30,2,122,2,333.57538539999223,334.57437299999583,334.57437299999583,334.57437299999583,334.57437299999583,334.57437299999583,335.5740691999963,335.5740691999963,c,1,0.347451200010255,None,085087,001,2023-10-17_19h25.08.681,lab in psych tut 4 quiz,2023.1.3,60.04181311900648,
-150,z,30,3,123,3,335.94194950000383,336.9405229999975,336.9405229999975,336.9405229999975,336.9405229999975,336.9405229999975,337.9402892999933,337.9402892999933,z,1,0.31123350000416394,None,085087,001,2023-10-17_19h25.08.681,lab in psych tut 4 quiz,2023.1.3,60.04181311900648,
-50,x,31,0,124,0,338.27486879999924,339.2734361000039,339.2734361000039,339.2734361000039,339.2734361000039,339.2734361000039,340.2729682999925,340.2729682999925,x,1,0.6268282999953954,None,085087,001,2023-10-17_19h25.08.681,lab in psych tut 4 quiz,2023.1.3,60.04181311900648,
150,v,31,1,125,1,340.9244378000003,341.9227819999942,341.9227819999942,341.9227819999942,341.9227819999942,341.9227819999942,342.9225144999946,342.9225144999946,v,1,0.1958238000079291,None,085087,001,2023-10-17_19h25.08.681,lab in psych tut 4 quiz,2023.1.3,60.04181311900648,
50,c,31,2,126,2,343.140502299997,344.1390706999955,344.1390706999955,344.1390706999955,344.1390706999955,344.1390706999955,345.1387920999987,345.1387920999987,c,1,0.15253460001258645,None,085087,001,2023-10-17_19h25.08.681,lab in psych tut 4 quiz,2023.1.3,60.04181311900648,
-150,z,31,3,127,3,345.32361479999963,346.3220185999962,346.3220185999962,346.3220185999962,346.3220185999962,346.3220185999962,347.32185059999756,347.32185059999756,z,1,0.2837693000037689,None,085087,001,2023-10-17_19h25.08.681,lab in psych tut 4 quiz,2023.1.3,60.04181311900648,
-50,x,32,0,128,0,347.62288100000296,348.621501799993,348.621501799993,348.621501799993,348.621501799993,348.621501799993,349.62132399999246,349.62132399999246,x,1,0.2511729999969248,None,085087,001,2023-10-17_19h25.08.681,lab in psych tut 4 quiz,2023.1.3,60.04181311900648,
150,v,32,1,129,1,349.905989699997,350.9043345999962,350.9043345999962,350.9043345999962,350.9043345999962,350.9043345999962,351.9043090999912,351.9043090999912,v,1,0.526280800011591,None,085087,001,2023-10-17_19h25.08.681,lab in psych tut 4 quiz,2023.1.3,60.04181311900648,
50,c,32,2,130,2,352.4554263000027,353.4539882999961,353.4539882999961,353.4539882999961,353.4539882999961,353.4539882999961,354.4537063000025,354.4537063000025,c,1,0.8627870000054827,None,085087,001,2023-10-17_19h25.08.681,lab in psych tut 4 quiz,2023.1.3,60.04181311900648,
-150,z,32,3,131,3,355.3383379000006,356.3365857000026,356.3365857000026,356.3365857000026,356.3365857000026,356.3365857000026,357.33650049999414,357.33650049999414,z,1,0.3090457000071183,None,085087,001,2023-10-17_19h25.08.681,lab in psych tut 4 quiz,2023.1.3,60.04181311900648,
-50,x,33,0,132,0,357.67110649999813,358.6696052999905,358.6696052999905,358.6696052999905,358.6696052999905,358.6696052999905,359.6697586999944,359.6697586999944,x,1,0.15773160000389908,None,085087,001,2023-10-17_19h25.08.681,lab in psych tut 4 quiz,2023.1.3,60.04181311900648,
150,v,33,1,133,1,359.85395750000316,360.8523936999991,360.8523936999991,360.8523936999991,360.8523936999991,360.8523936999991,361.85225280000304,361.85225280000304,v,1,0.2334473000082653,None,085087,001,2023-10-17_19h25.08.681,lab in psych tut 4 quiz,2023.1.3,60.04181311900648,
50,c,33,2,134,2,362.10371060000034,363.10207079999964,363.10207079999964,363.10207079999964,363.10207079999964,363.10207079999964,364.1018384999916,364.1018384999916,c,1,0.19291599999996834,None,085087,001,2023-10-17_19h25.08.681,lab in psych tut 4 quiz,2023.1.3,60.04181311900648,
-150,z,33,3,135,3,364.3197583000001,365.3181833999988,365.3181833999988,365.3181833999988,365.3181833999988,365.3181833999988,366.317928199991,366.317928199991,z,1,0.4175829000014346,None,085087,001,2023-10-17_19h25.08.681,lab in psych tut 4 quiz,2023.1.3,60.04181311900648,
-50,x,34,0,136,0,366.7692720999912,367.7675407999923,367.7675407999923,367.7675407999923,367.7675407999923,367.7675407999923,368.7676980999968,368.7676980999968,x,1,0.2877926000073785,None,085087,001,2023-10-17_19h25.08.681,lab in psych tut 4 quiz,2023.1.3,60.04181311900648,
150,v,34,1,137,1,369.0853051000013,370.0839457999973,370.0839457999973,370.0839457999973,370.0839457999973,370.0839457999973,371.0836832999921,371.0836832999921,v,1,0.5502285999973537,None,085087,001,2023-10-17_19h25.08.681,lab in psych tut 4 quiz,2023.1.3,60.04181311900648,
50,c,34,2,138,2,371.65160549999564,372.6500715000002,372.6500715000002,372.6500715000002,372.6500715000002,372.6500715000002,373.64986269999645,373.64986269999645,c,1,0.3607890999992378,None,085087,001,2023-10-17_19h25.08.681,lab in psych tut 4 quiz,2023.1.3,60.04181311900648,
-150,z,34,3,139,3,374.0345762999932,375.03304429999844,375.03304429999844,375.03304429999844,375.03304429999844,375.03304429999844,376.0328815999965,376.0328815999965,z,1,0.5178050999966217,None,085087,001,2023-10-17_19h25.08.681,lab in psych tut 4 quiz,2023.1.3,60.04181311900648,
-50,x,35,0,140,0,376.5840296999959,377.58254459999443,377.58254459999443,377.58254459999443,377.58254459999443,377.58254459999443,378.5823473999917,378.5823473999917,x,1,0.680115700000897,None,085087,001,2023-10-17_19h25.08.681,lab in psych tut 4 quiz,2023.1.3,60.04181311900648,
150,v,35,1,141,1,379.2834193000017,380.2819260999968,380.2819260999968,380.2819260999968,380.2819260999968,380.2819260999968,381.28172499999346,381.28172499999346,v,1,0.3638768000091659,None,085087,001,2023-10-17_19h25.08.681,lab in psych tut 4 quiz,2023.1.3,60.04181311900648,
50,c,35,2,142,2,381.6664419000008,382.66493269999046,382.66493269999046,382.66493269999046,382.66493269999046,382.66493269999046,383.6646616999933,383.6646616999933,c,1,0.31327369999780785,None,085087,001,2023-10-17_19h25.08.681,lab in psych tut 4 quiz,2023.1.3,60.04181311900648,
-150,z,35,3,143,3,383.99902740000107,384.99755109999387,384.99755109999387,384.99755109999387,384.99755109999387,384.99755109999387,385.9975337999931,385.9975337999931,z,1,0.33767700000316836,None,085087,001,2023-10-17_19h25.08.681,lab in psych tut 4 quiz,2023.1.3,60.04181311900648,
-50,x,36,0,144,0,386.36530999999377,387.3639772000024,387.3639772000024,387.3639772000024,387.3639772000024,387.3639772000024,388.36369879999256,388.36369879999256,x,1,0.48682830001052935,None,085087,001,2023-10-17_19h25.08.681,lab in psych tut 4 quiz,2023.1.3,60.04181311900648,
150,v,36,1,145,1,388.88139450000017,389.88025539999944,389.88025539999944,389.88025539999944,389.88025539999944,389.88025539999944,390.8799425000034,390.8799425000034,v,1,0.3367227999988245,None,085087,001,2023-10-17_19h25.08.681,lab in psych tut 4 quiz,2023.1.3,60.04181311900648,
50,c,36,2,146,2,391.2476190000016,392.2463848000043,392.2463848000043,392.2463848000043,392.2463848000043,392.2463848000043,393.2460255000042,393.2460255000042,c,1,0.3340981999936048,None,085087,001,2023-10-17_19h25.08.681,lab in psych tut 4 quiz,2023.1.3,60.04181311900648,
-150,z,36,3,147,3,393.6137250000029,394.6124076999986,394.6124076999986,394.6124076999986,394.6124076999986,394.6124076999986,395.6121497999993,395.6121497999993,z,1,0.34449319999839645,None,085087,001,2023-10-17_19h25.08.681,lab in psych tut 4 quiz,2023.1.3,60.04181311900648,
-50,x,37,0,148,0,395.9802021999931,396.97861120000016,396.97861120000016,396.97861120000016,396.97861120000016,396.97861120000016,397.97829980000097,397.97829980000097,x,1,0.49828010000055656,None,085087,001,2023-10-17_19h25.08.681,lab in psych tut 4 quiz,2023.1.3,60.04181311900648,
150,v,37,1,149,1,398.49633059999906,399.4950259000034,399.4950259000034,399.4950259000034,399.4950259000034,399.4950259000034,400.49459030000435,400.49459030000435,v,1,0.4265385000035167,None,085087,001,2023-10-17_19h25.08.681,lab in psych tut 4 quiz,2023.1.3,60.04181311900648,
50,c,37,2,150,2,400.94566289999057,401.9440673999925,401.9440673999925,401.9440673999925,401.9440673999925,401.9440673999925,402.9439882000006,402.9439882000006,c,1,0.3827138000051491,None,085087,001,2023-10-17_19h25.08.681,lab in psych tut 4 quiz,2023.1.3,60.04181311900648,
-150,z,37,3,151,3,403.34517519999645,404.3438537000038,404.3438537000038,404.3438537000038,404.3438537000038,404.3438537000038,405.343763900004,405.343763900004,z,1,1.8067081999906804,None,085087,001,2023-10-17_19h25.08.681,lab in psych tut 4 quiz,2023.1.3,60.04181311900648,
-50,x,38,0,152,0,407.17803500000446,408.1764821999968,408.1764821999968,408.1764821999968,408.1764821999968,408.1764821999968,409.17595730000176,409.17595730000176,x,1,0.6551712000073167,None,085087,001,2023-10-17_19h25.08.681,lab in psych tut 4 quiz,2023.1.3,60.04181311900648,
150,v,38,1,153,1,409.8606759999966,410.8592670999933,410.8592670999933,410.8592670999933,410.8592670999933,410.8592670999933,411.8589299000014,411.8589299000014,v,1,0.5067094999976689,None,085087,001,2023-10-17_19h25.08.681,lab in psych tut 4 quiz,2023.1.3,60.04181311900648,
50,c,38,2,154,2,412.39372860000003,413.39199279999593,413.39199279999593,413.39199279999593,413.39199279999593,413.39199279999593,414.39178799999354,414.39178799999354,c,1,0.326847699994687,None,085087,001,2023-10-17_19h25.08.681,lab in psych tut 4 quiz,2023.1.3,60.04181311900648,
-150,z,38,3,155,3,414.7428749999963,415.7414914999972,415.7414914999972,415.7414914999972,415.7414914999972,415.7414914999972,416.7415309999924,416.7415309999924,z,1,1.6191410000028554,None,085087,001,2023-10-17_19h25.08.681,lab in psych tut 4 quiz,2023.1.3,60.04181311900648,
-50,x,39,0,156,0,418.3927926000033,419.39104809999117,419.39104809999117,419.39104809999117,419.39104809999117,419.39104809999117,420.39074190000247,420.39074190000247,x,1,0.5921662000037031,None,085087,001,2023-10-17_19h25.08.681,lab in psych tut 4 quiz,2023.1.3,60.04181311900648,
150,v,39,1,157,1,421.0086139999912,422.0070390000037,422.0070390000037,422.0070390000037,422.0070390000037,422.0070390000037,423.00689879999845,423.00689879999845,c,0,1.2380381999973906,None,085087,001,2023-10-17_19h25.08.681,lab in psych tut 4 quiz,2023.1.3,60.04181311900648,
50,c,39,2,158,2,424.2745550999971,425.27308549999725,425.27308549999725,425.27308549999725,425.27308549999725,425.27308549999725,426.272916899994,426.272916899994,c,1,0.1961135000019567,None,085087,001,2023-10-17_19h25.08.681,lab in psych tut 4 quiz,2023.1.3,60.04181311900648,
-150,z,39,3,159,3,426.4909700999997,427.4891862999939,427.4891862999939,427.4891862999939,427.4891862999939,427.4891862999939,428.4891046999983,428.4891046999983,z,1,0.30040290001488756,None,085087,001,2023-10-17_19h25.08.681,lab in psych tut 4 quiz,2023.1.3,60.04181311900648,
-50,x,40,0,160,0,428.8070221999951,429.8055935000011,429.8055935000011,429.8055935000011,429.8055935000011,429.8055935000011,430.8052760999999,430.8052760999999,x,1,0.3563189000124112,None,085087,001,2023-10-17_19h25.08.681,lab in psych tut 4 quiz,2023.1.3,60.04181311900648,
150,v,40,1,161,1,431.189701700001,432.18840319999435,432.18840319999435,432.18840319999435,432.18840319999435,432.18840319999435,433.18815590000304,433.18815590000304,v,1,0.34972949999792036,None,085087,001,2023-10-17_19h25.08.681,lab in psych tut 4 quiz,2023.1.3,60.04181311900648,
50,c,40,2,162,2,433.5560661999916,434.5545536999998,434.5545536999998,434.5545536999998,434.5545536999998,434.5545536999998,435.55440799999633,435.55440799999633,c,1,0.36958359999698587,None,085087,001,2023-10-17_19h25.08.681,lab in psych tut 4 quiz,2023.1.3,60.04181311900648,
-150,z,40,3,163,3,435.95599489999586,436.9540648999973,436.9540648999973,436.9540648999973,436.9540648999973,436.9540648999973,437.9538765000034,437.9538765000034,z,1,0.5610613000026206,None,085087,001,2023-10-17_19h25.08.681,lab in psych tut 4 quiz,2023.1.3,60.04181311900648,
-50,x,41,0,164,0,438.5383201999939,439.5369054999901,439.5369054999901,439.5369054999901,439.5369054999901,439.5369054999901,440.5367258000042,440.5367258000042,x,1,0.5175145999965025,None,085087,001,2023-10-17_19h25.08.681,lab in psych tut 4 quiz,2023.1.3,60.04181311900648,
150,v,41,1,165,1,441.0880356999987,442.08650320000015,442.08650320000015,442.08650320000015,442.08650320000015,442.08650320000015,443.08612589999393,443.08612589999393,v,1,0.12866240000585094,None,085087,001,2023-10-17_19h25.08.681,lab in psych tut 4 quiz,2023.1.3,60.04181311900648,
50,c,41,2,166,2,443.237541399998,444.23591339999984,444.23591339999984,444.23591339999984,444.23591339999984,444.23591339999984,445.23570859999745,445.23570859999745,c,1,0.09749680000822991,None,085087,001,2023-10-17_19h25.08.681,lab in psych tut 4 quiz,2023.1.3,60.04181311900648,
-150,z,41,3,167,3,445.35391819999495,446.3522219000006,446.3522219000006,446.3522219000006,446.3522219000006,446.3522219000006,447.3519183000026,447.3519183000026,z,1,0.1706802999979118,None,085087,001,2023-10-17_19h25.08.681,lab in psych tut 4 quiz,2023.1.3,60.04181311900648,
-50,x,42,0,168,0,447.5534833999991,448.55169779999414,448.55169779999414,448.55169779999414,448.55169779999414,448.55169779999414,449.5514433999924,449.5514433999924,x,1,0.21205919999920297,None,085087,001,2023-10-17_19h25.08.681,lab in psych tut 4 quiz,2023.1.3,60.04181311900648,
150,v,42,1,169,1,449.78629059999366,450.78483479999704,450.78483479999704,450.78483479999704,450.78483479999704,450.78483479999704,451.78454199999396,451.78454199999396,v,1,0.21665970000321977,None,085087,001,2023-10-17_19h25.08.681,lab in psych tut 4 quiz,2023.1.3,60.04181311900648,
50,c,42,2,170,2,452.0462081000005,453.0509922999918,453.0509922999918,453.0509922999918,453.0509922999918,453.0509922999918,454.05087579999235,454.05087579999235,c,1,0.04597930000454653,None,085087,001,2023-10-17_19h25.08.681,lab in psych tut 4 quiz,2023.1.3,60.04181311900648,
-150,z,42,3,171,3,454.11854699999094,455.1172260000021,455.1172260000021,455.1172260000021,455.1172260000021,455.1172260000021,456.11704669999017,456.11704669999017,z,1,0.15754800000286195,None,085087,001,2023-10-17_19h25.08.681,lab in psych tut 4 quiz,2023.1.3,60.04181311900648,
-50,x,43,0,172,0,456.30163729999913,457.3002608999959,457.3002608999959,457.3002608999959,457.3002608999959,457.3002608999959,458.2998163000011,458.2998163000011,x,1,0.253885000012815,None,085087,001,2023-10-17_19h25.08.681,lab in psych tut 4 quiz,2023.1.3,60.04181311900648,
150,v,43,1,173,1,458.58424650000234,459.58303379999415,459.58303379999415,459.58303379999415,459.58303379999415,459.58303379999415,460.5825493000011,460.5825493000011,v,1,0.23706359999778215,None,085087,001,2023-10-17_19h25.08.681,lab in psych tut 4 quiz,2023.1.3,60.04181311900648,
50,c,43,2,174,2,460.85065159999067,461.8492522000015,461.8492522000015,461.8492522000015,461.8492522000015,461.8492522000015,462.84898310000426,462.84898310000426,c,1,0.13145499999518506,None,085087,001,2023-10-17_19h25.08.681,lab in psych tut 4 quiz,2023.1.3,60.04181311900648,
-150,z,43,3,175,3,463.0004210999905,463.99882209999487,463.99882209999487,463.99882209999487,463.99882209999487,463.99882209999487,464.99860569999146,464.99860569999146,z,1,0.27716879999206867,None,085087,001,2023-10-17_19h25.08.681,lab in psych tut 4 quiz,2023.1.3,60.04181311900648,
-50,x,44,0,176,0,465.29975710000144,466.2983458999952,466.2983458999952,466.2983458999952,466.2983458999952,466.2983458999952,467.29803710000124,467.29803710000124,x,1,0.1094846000050893,None,085087,001,2023-10-17_19h25.08.681,lab in psych tut 4 quiz,2023.1.3,60.04181311900648,
150,v,44,1,177,1,467.43277440000384,468.431053399996,468.431053399996,468.431053399996,468.431053399996,468.431053399996,469.4308602999954,469.4308602999954,v,1,0.15834960000938736,None,085087,001,2023-10-17_19h25.08.681,lab in psych tut 4 quiz,2023.1.3,60.04181311900648,
50,c,44,2,178,2,469.61541549999674,470.61413919999904,470.61413919999904,470.61413919999904,470.61413919999904,470.61413919999904,471.6137873999978,471.6137873999978,c,1,0.2085959000105504,None,085087,001,2023-10-17_19h25.08.681,lab in psych tut 4 quiz,2023.1.3,60.04181311900648,
-150,z,44,3,179,3,471.848370599997,472.847039699991,472.847039699991,472.847039699991,472.847039699991,472.847039699991,473.84702309999557,473.84702309999557,z,1,0.12049450000631623,None,085087,001,2023-10-17_19h25.08.681,lab in psych tut 4 quiz,2023.1.3,60.04181311900648,
-50,x,45,0,180,0,473.9982358999987,474.9965783999942,474.9965783999942,474.9965783999942,474.9965783999942,474.9965783999942,475.9961994000041,475.9961994000041,x,1,0.14892580000741873,None,085087,001,2023-10-17_19h25.08.681,lab in psych tut 4 quiz,2023.1.3,60.04181311900648,
150,v,45,1,181,1,476.16446580000047,477.16284689999884,477.16284689999884,477.16284689999884,477.16284689999884,477.16284689999884,478.162482300002,478.162482300002,v,1,0.09621710001374595,None,085087,001,2023-10-17_19h25.08.681,lab in psych tut 4 quiz,2023.1.3,60.04181311900648,
50,c,45,2,182,2,478.28046429999813,479.2789778000006,479.2789778000006,479.2789778000006,479.2789778000006,479.2789778000006,480.2787773000018,480.2787773000018,c,1,0.0707340000080876,None,085087,001,2023-10-17_19h25.08.681,lab in psych tut 4 quiz,2023.1.3,60.04181311900648,
-150,z,45,3,183,3,480.3801332000003,481.3785011,481.3785011,481.3785011,481.3785011,481.3785011,482.37834609999845,482.37834609999845,z,1,0.12203759999829344,None,085087,001,2023-10-17_19h25.08.681,lab in psych tut 4 quiz,2023.1.3,60.04181311900648,
-50,x,46,0,184,0,482.529655499995,483.52824279999186,483.52824279999186,483.52824279999186,483.52824279999186,483.52824279999186,484.52799909999885,484.52799909999885,x,1,1.20862489999854,None,085087,001,2023-10-17_19h25.08.681,lab in psych tut 4 quiz,2023.1.3,60.04181311900648,
150,v,46,1,185,1,485.76240710000275,486.76116860000184,486.76116860000184,486.76116860000184,486.76116860000184,486.76116860000184,487.7609635999979,487.7609635999979,v,1,0.7060146000003442,None,085087,001,2023-10-17_19h25.08.681,lab in psych tut 4 quiz,2023.1.3,60.04181311900648,
50,c,46,2,186,2,488.4951976000011,489.49365930000204,489.49365930000204,489.49365930000204,489.49365930000204,489.49365930000204,490.4935586999927,490.4935586999927,c,1,0.40515390000655316,None,085087,001,2023-10-17_19h25.08.681,lab in psych tut 4 quiz,2023.1.3,60.04181311900648,
-150,z,46,3,187,3,490.9281400000036,491.92653070000233,491.92653070000233,491.92653070000233,491.92653070000233,491.92653070000233,492.9263742000039,492.9263742000039,z,1,0.6168445000075735,None,085087,001,2023-10-17_19h25.08.681,lab in psych tut 4 quiz,2023.1.3,60.04181311900648,
-50,x,47,0,188,0,493.5609669999976,494.5593743999925,494.5593743999925,494.5593743999925,494.5593743999925,494.5593743999925,495.5591599000036,495.5591599000036,v,0,0.21824780000315513,None,085087,001,2023-10-17_19h25.08.681,lab in psych tut 4 quiz,2023.1.3,60.04181311900648,
150,v,47,1,189,1,495.8103196000011,496.8088851999928,496.8088851999928,496.8088851999928,496.8088851999928,496.8088851999928,497.808784199995,497.808784199995,v,1,0.4188836999965133,None,085087,001,2023-10-17_19h25.08.681,lab in psych tut 4 quiz,2023.1.3,60.04181311900648,
50,c,47,2,190,2,498.26011439999274,499.25848920000135,499.25848920000135,499.25848920000135,499.25848920000135,499.25848920000135,500.25821949999954,500.25821949999954,c,1,0.37342530000023544,None,085087,001,2023-10-17_19h25.08.681,lab in psych tut 4 quiz,2023.1.3,60.04181311900648,
-150,z,47,3,191,3,500.65937680000206,501.6580552999949,501.6580552999949,501.6580552999949,501.6580552999949,501.6580552999949,502.6577932999935,502.6577932999935,z,1,0.31428950000554323,None,085087,001,2023-10-17_19h25.08.681,lab in psych tut 4 quiz,2023.1.3,60.04181311900648,
-50,x,48,0,192,0,502.99239859999216,503.99115220000385,503.99115220000385,503.99115220000385,503.99115220000385,503.99115220000385,504.99082809999527,504.99082809999527,x,1,0.26847589999670163,None,085087,001,2023-10-17_19h25.08.681,lab in psych tut 4 quiz,2023.1.3,60.04181311900648,
150,v,48,1,193,1,505.29217129999597,506.2903310999973,506.2903310999973,506.2903310999973,506.2903310999973,506.2903310999973,507.29035149999254,507.29035149999254,v,1,0.17034420001436956,None,085087,001,2023-10-17_19h25.08.681,lab in psych tut 4 quiz,2023.1.3,60.04181311900648,
50,c,48,2,194,2,507.4918331999943,508.4899421000009,508.4899421000009,508.4899421000009,508.4899421000009,508.4899421000009,509.48978740000166,509.48978740000166,c,1,0.15102680001291446,None,085087,001,2023-10-17_19h25.08.681,lab in psych tut 4 quiz,2023.1.3,60.04181311900648,
-150,z,48,3,195,3,509.6745445999986,510.6729215999949,510.6729215999949,510.6729215999949,510.6729215999949,510.6729215999949,511.67265609999595,511.67265609999595,z,1,0.3069056000094861,None,085087,001,2023-10-17_19h25.08.681,lab in psych tut 4 quiz,2023.1.3,60.04181311900648,
-50,x,49,0,196,0,512.0074460000033,513.005608499996,513.005608499996,513.005608499996,513.005608499996,513.005608499996,514.0056004999933,514.0056004999933,v,0,0.3370723999978509,None,085087,001,2023-10-17_19h25.08.681,lab in psych tut 4 quiz,2023.1.3,60.04181311900648,
150,v,49,1,197,1,514.3734612999979,515.3718937999947,515.3718937999947,515.3718937999947,515.3718937999947,515.3718937999947,516.3716061000014,516.3716061000014,c,0,0.2928614000120433,None,085087,001,2023-10-17_19h25.08.681,lab in psych tut 4 quiz,2023.1.3,60.04181311900648,
50,c,49,2,198,2,516.6897423999908,517.6880174999969,517.6880174999969,517.6880174999969,517.6880174999969,517.6880174999969,518.6881036999985,518.6881036999985,c,1,0.2841670000052545,None,085087,001,2023-10-17_19h25.08.681,lab in psych tut 4 quiz,2023.1.3,60.04181311900648,
-150,z,49,3,199,3,519.0060681000032,520.0045528999908,520.0045528999908,520.0045528999908,520.0045528999908,520.0045528999908,521.004147899992,521.004147899992,z,1,0.47811270000238437,None,085087,001,2023-10-17_19h25.08.681,lab in psych tut 4 quiz,2023.1.3,60.04181311900648,
-50,x,50,0,200,0,521.5054803999956,522.503985599993,522.503985599993,522.503985599993,522.503985599993,522.503985599993,523.5039336999907,523.5039336999907,x,1,0.07520090001344215,None,085087,001,2023-10-17_19h25.08.681,lab in psych tut 4 quiz,2023.1.3,60.04181311900648,
150,v,50,1,201,1,523.6051613000018,524.6034743999917,524.6034743999917,524.6034743999917,524.6034743999917,524.6034743999917,525.6031941999972,525.6031941999972,v,1,0.021188300001085736,None,085087,001,2023-10-17_19h25.08.681,lab in psych tut 4 quiz,2023.1.3,60.04181311900648,
50,c,50,2,202,2,525.6546155999968,526.6531199000019,526.6531199000019,526.6531199000019,526.6531199000019,526.6531199000019,527.6528091999935,527.6528091999935,c,1,0.5876660000067204,None,085087,001,2023-10-17_19h25.08.681,lab in psych tut 4 quiz,2023.1.3,60.04181311900648,
-150,z,50,3,203,3,528.2705682999949,529.2693159999908,529.2693159999908,529.2693159999908,529.2693159999908,529.2693159999908,530.2689022999984,530.2689022999984,z,1,0.3537873000022955,None,085087,001,2023-10-17_19h25.08.681,lab in psych tut 4 quiz,2023.1.3,60.04181311900648,
-50,x,51,0,204,0,530.6537924000004,531.652010699996,531.652010699996,531.652010699996,531.652010699996,531.652010699996,532.6517134000023,532.6517134000023,x,1,0.38779259999864735,None,085087,001,2023-10-17_19h25.08.681,lab in psych tut 4 quiz,2023.1.3,60.04181311900648,
150,v,51,1,205,1,533.069816999996,534.0683371999912,534.0683371999912,534.0683371999912,534.0683371999912,534.0683371999912,535.0680065999913,535.0680065999913,v,1,0.9852984000026481,None,085087,001,2023-10-17_19h25.08.681,lab in psych tut 4 quiz,2023.1.3,60.04181311900648,
50,c,51,2,206,2,536.0858899000013,537.0843464999925,537.0843464999925,537.0843464999925,537.0843464999925,537.0843464999925,538.0841134999937,538.0841134999937,c,1,0.3510052000056021,None,085087,001,2023-10-17_19h25.08.681,lab in psych tut 4 quiz,2023.1.3,60.04181311900648,
-150,z,51,3,207,3,538.4685373999964,539.4672599999903,539.4672599999903,539.4672599999903,539.4672599999903,539.4672599999903,540.4669979000028,540.4669979000028,z,1,0.3507701000053203,None,085087,001,2023-10-17_19h25.08.681,lab in psych tut 4 quiz,2023.1.3,60.04181311900648,
-50,x,52,0,208,0,540.8515406999941,541.8503272999951,541.8503272999951,541.8503272999951,541.8503272999951,541.8503272999951,542.8498060999991,542.8498060999991,x,1,0.5737971999915317,None,085087,001,2023-10-17_19h25.08.681,lab in psych tut 4 quiz,2023.1.3,60.04181311900648,
150,v,52,1,209,1,543.4510122999927,544.4494788000011,544.4494788000011,544.4494788000011,544.4494788000011,544.4494788000011,545.4493121999985,545.4493121999985,v,1,0.3570280000130879,None,085087,001,2023-10-17_19h25.08.681,lab in psych tut 4 quiz,2023.1.3,60.04181311900648,
50,c,52,2,210,2,545.8341176999966,546.8325098999921,546.8325098999921,546.8325098999921,546.8325098999921,546.8325098999921,547.8321088999946,547.8321088999946,c,1,0.2897380000067642,None,085087,001,2023-10-17_19h25.08.681,lab in psych tut 4 quiz,2023.1.3,60.04181311900648,
-150,z,52,3,211,3,548.150272999992,549.1487170000037,549.1487170000037,549.1487170000037,549.1487170000037,549.1487170000037,550.1484178999963,550.1484178999963,z,1,0.3387665000045672,None,085087,001,2023-10-17_19h25.08.681,lab in psych tut 4 quiz,2023.1.3,60.04181311900648,
-50,x,53,0,212,0,550.5163651000039,551.5150022000016,551.5150022000016,551.5150022000016,551.5150022000016,551.5150022000016,552.5143180000014,552.5143180000014,x,1,0.32790440000826493,None,085087,001,2023-10-17_19h25.08.681,lab in psych tut 4 quiz,2023.1.3,60.04181311900648,
150,v,53,1,213,1,552.8658207999979,553.8644252999948,553.8644252999948,553.8644252999948,553.8644252999948,553.8644252999948,554.8641788999957,554.8641788999957,v,1,0.35371710000617895,None,085087,001,2023-10-17_19h25.08.681,lab in psych tut 4 quiz,2023.1.3,60.04181311900648,
50,c,53,2,214,2,555.2487000999972,556.2471842999948,556.2471842999948,556.2471842999948,556.2471842999948,556.2471842999948,557.2468735000002,557.2468735000002,c,1,0.2644964999926742,None,085087,001,2023-10-17_19h25.08.681,lab in psych tut 4 quiz,2023.1.3,60.04181311900648,
-150,z,53,3,215,3,557.5317721000029,558.5302813000017,558.5302813000017,558.5302813000017,558.5302813000017,558.5302813000017,559.5298702,559.5298702,z,1,0.4032194999890635,None,085087,001,2023-10-17_19h25.08.681,lab in psych tut 4 quiz,2023.1.3,60.04181311900648,
-50,x,54,0,216,0,559.9646742000041,560.9628849000001,560.9628849000001,560.9628849000001,560.9628849000001,560.9628849000001,561.9625954999938,561.9625954999938,x,1,0.32457360000989866,None,085087,001,2023-10-17_19h25.08.681,lab in psych tut 4 quiz,2023.1.3,60.04181311900648,
150,v,54,1,217,1,562.3143654000014,563.3125688,563.3125688,563.3125688,563.3125688,563.3125688,564.3123675999959,564.3123675999959,v,1,0.33843820000765845,None,085087,001,2023-10-17_19h25.08.681,lab in psych tut 4 quiz,2023.1.3,60.04181311900648,
50,c,54,2,218,2,564.680409499997,565.6787190000032,565.6787190000032,565.6787190000032,565.6787190000032,565.6787190000032,566.6786297999934,566.6786297999934,c,1,0.028299600002355874,None,085087,001,2023-10-17_19h25.08.681,lab in psych tut 4 quiz,2023.1.3,60.04181311900648,
-150,z,54,3,219,3,566.7303594999976,567.7283224999992,567.7283224999992,567.7283224999992,567.7283224999992,567.7283224999992,568.7279736999917,568.7279736999917,z,1,0.20337010000366718,None,085087,001,2023-10-17_19h25.08.681,lab in psych tut 4 quiz,2023.1.3,60.04181311900648,
-50,x,55,0,220,0,568.9627854999999,569.9610968999914,569.9610968999914,569.9610968999914,569.9610968999914,569.9610968999914,570.9609532000031,570.9609532000031,x,1,0.4012001999944914,None,085087,001,2023-10-17_19h25.08.681,lab in psych tut 4 quiz,2023.1.3,60.04181311900648,
150,v,55,1,221,1,571.3956241999986,572.3940852999949,572.3940852999949,572.3940852999949,572.3940852999949,572.3940852999949,573.3938384999929,573.3938384999929,v,1,0.30094330001156777,None,085087,001,2023-10-17_19h25.08.681,lab in psych tut 4 quiz,2023.1.3,60.04181311900648,
50,c,55,2,222,2,573.7283164999972,574.7267705999984,574.7267705999984,574.7267705999984,574.7267705999984,574.7267705999984,575.7267074999982,575.7267074999982,c,1,0.3999859000032302,None,085087,001,2023-10-17_19h25.08.681,lab in psych tut 4 quiz,2023.1.3,60.04181311900648,
-150,z,55,3,223,3,576.1441504999966,577.1431890999957,577.1431890999957,577.1431890999957,577.1431890999957,577.1431890999957,578.1428908999951,578.1428908999951,z,1,0.40033730000141077,None,085087,001,2023-10-17_19h25.08.681,lab in psych tut 4 quiz,2023.1.3,60.04181311900648,
-50,x,56,0,224,0,578.5608587000024,579.5591940000013,579.5591940000013,579.5591940000013,579.5591940000013,579.5591940000013,580.5591047999915,580.5591047999915,x,1,0.4815892000042368,None,085087,001,2023-10-17_19h25.08.681,lab in psych tut 4 quiz,2023.1.3,60.04181311900648,
150,v,56,1,225,1,581.060389899998,582.0586257999967,582.0586257999967,582.0586257999967,582.0586257999967,582.0586257999967,583.0584685999929,583.0584685999929,v,1,0.30743830000574235,None,085087,001,2023-10-17_19h25.08.681,lab in psych tut 4 quiz,2023.1.3,60.04181311900648,
50,c,56,2,226,2,583.3931049999956,584.3915017999971,584.3915017999971,584.3915017999971,584.3915017999971,584.3915017999971,585.3914809999987,585.3914809999987,c,1,0.13797949999570847,None,085087,001,2023-10-17_19h25.08.681,lab in psych tut 4 quiz,2023.1.3,60.04181311900648,
-150,z,56,3,227,3,585.5593270999962,586.5578475999937,586.5578475999937,586.5578475999937,586.5578475999937,586.5578475999937,587.5576598999905,587.5576598999905,z,1,0.5320765999931609,None,085087,001,2023-10-17_19h25.08.681,lab in psych tut 4 quiz,2023.1.3,60.04181311900648,
-50,x,57,0,228,0,588.1088434999983,589.1073842999904,589.1073842999904,589.1073842999904,589.1073842999904,589.1073842999904,590.1071995999955,590.1071995999955,x,1,0.524848800007021,None,085087,001,2023-10-17_19h25.08.681,lab in psych tut 4 quiz,2023.1.3,60.04181311900648,
150,v,57,1,229,1,590.6586186999921,591.6569728000031,591.6569728000031,591.6569728000031,591.6569728000031,591.6569728000031,592.6566528999974,592.6566528999974,v,1,0.38048320000234526,None,085087,001,2023-10-17_19h25.08.681,lab in psych tut 4 quiz,2023.1.3,60.04181311900648,
50,c,57,2,230,2,593.0578932999924,594.0564034999989,594.0564034999989,594.0564034999989,594.0564034999989,594.0564034999989,595.056285899991,595.056285899991,c,1,0.4642208000004757,None,085087,001,2023-10-17_19h25.08.681,lab in psych tut 4 quiz,2023.1.3,60.04181311900648,
-150,z,57,3,231,3,595.5405956000031,596.5392711000022,596.5392711000022,596.5392711000022,596.5392711000022,596.5392711000022,597.5391516999953,597.5391516999953,z,1,1.896180199997616,None,085087,001,2023-10-17_19h25.08.681,lab in psych tut 4 quiz,2023.1.3,60.04181311900648,
-50,x,58,0,232,0,599.4568106999941,600.4552823999984,600.4552823999984,600.4552823999984,600.4552823999984,600.4552823999984,601.4549761999951,601.4549761999951,x,1,0.7010855999978958,None,085087,001,2023-10-17_19h25.08.681,lab in psych tut 4 quiz,2023.1.3,60.04181311900648,
150,v,58,1,233,1,602.1895434000035,603.1877609999938,603.1877609999938,603.1877609999938,603.1877609999938,603.1877609999938,604.1874749999988,604.1874749999988,v,1,0.2799784999951953,None,085087,001,2023-10-17_19h25.08.681,lab in psych tut 4 quiz,2023.1.3,60.04181311900648,
50,c,58,2,234,2,604.4891719000007,605.4874164999928,605.4874164999928,605.4874164999928,605.4874164999928,605.4874164999928,606.4873863999965,606.4873863999965,c,1,0.45429670000157785,None,085087,001,2023-10-17_19h25.08.681,lab in psych tut 4 quiz,2023.1.3,60.04181311900648,
-150,z,58,3,235,3,606.9717635999987,607.9701127000008,607.9701127000008,607.9701127000008,607.9701127000008,607.9701127000008,608.9702527000045,608.9702527000045,x,0,0.5105041999922832,None,085087,001,2023-10-17_19h25.08.681,lab in psych tut 4 quiz,2023.1.3,60.04181311900648,
-50,x,59,0,236,0,609.504571700003,610.5033116999984,610.5033116999984,610.5033116999984,610.5033116999984,610.5033116999984,611.5029189999914,611.5029189999914,x,1,0.38774890001513995,None,085087,001,2023-10-17_19h25.08.681,lab in psych tut 4 quiz,2023.1.3,60.04181311900648,
150,v,59,1,237,1,611.9207629000011,612.9193056999939,612.9193056999939,612.9193056999939,612.9193056999939,612.9193056999939,613.9190648999938,613.9190648999938,v,1,0.7011794999998529,None,085087,001,2023-10-17_19h25.08.681,lab in psych tut 4 quiz,2023.1.3,60.04181311900648,
50,c,59,2,238,2,614.6536525999982,615.6523429999943,615.6523429999943,615.6523429999943,615.6523429999943,615.6523429999943,616.6519141000026,616.6519141000026,c,1,0.4506227000092622,None,085087,001,2023-10-17_19h25.08.681,lab in psych tut 4 quiz,2023.1.3,60.04181311900648,
-150,z,59,3,239,3,617.119609699992,618.1183415999985,618.1183415999985,618.1183415999985,618.1183415999985,618.1183415999985,619.1181279000011,619.1181279000011,z,1,0.3383853999985149,None,085087,001,2023-10-17_19h25.08.681,lab in psych tut 4 quiz,2023.1.3,60.04181311900648,
-50,x,60,0,240,0,619.4859359999973,620.4844883000042,620.4844883000042,620.4844883000042,620.4844883000042,620.4844883000042,621.4842293999973,621.4842293999973,x,1,0.3955205000092974,None,085087,001,2023-10-17_19h25.08.681,lab in psych tut 4 quiz,2023.1.3,60.04181311900648,
150,v,60,1,241,1,621.9022831000038,622.9007342999976,622.9007342999976,622.9007342999976,622.9007342999976,622.9007342999976,623.9003798999911,623.9003798999911,v,1,0.6173798000090756,None,085087,001,2023-10-17_19h25.08.681,lab in psych tut 4 quiz,2023.1.3,60.04181311900648,
50,c,60,2,242,2,624.551698700001,625.5501461999957,625.5501461999957,625.5501461999957,625.5501461999957,625.5501461999957,626.5500379000005,626.5500379000005,c,1,0.6392537999927299,None,085087,001,2023-10-17_19h25.08.681,lab in psych tut 4 quiz,2023.1.3,60.04181311900648,
-150,z,60,3,243,3,627.2177091999911,628.2163407000044,628.2163407000044,628.2163407000044,628.2163407000044,628.2163407000044,629.2162045000005,629.2162045000005,z,1,0.2563762000063434,None,085087,001,2023-10-17_19h25.08.681,lab in psych tut 4 quiz,2023.1.3,60.04181311900648,
-50,x,61,0,244,0,629.5009906999912,630.4993190999958,630.4993190999958,630.4993190999958,630.4993190999958,630.4993190999958,631.4992601999984,631.4992601999984,x,1,0.39174359999014996,None,085087,001,2023-10-17_19h25.08.681,lab in psych tut 4 quiz,2023.1.3,60.04181311900648,
150,v,61,1,245,1,631.9168360999902,632.9153938999953,632.9153938999953,632.9153938999953,632.9153938999953,632.9153938999953,633.9148600999906,633.9148600999906,v,1,0.12589950000983663,None,085087,001,2023-10-17_19h25.08.681,lab in psych tut 4 quiz,2023.1.3,60.04181311900648,
50,c,61,2,246,2,634.0664029000036,635.0649210999982,635.0649210999982,635.0649210999982,635.0649210999982,635.0649210999982,636.0647284000006,636.0647284000006,c,1,0.31075720000080764,None,085087,001,2023-10-17_19h25.08.681,lab in psych tut 4 quiz,2023.1.3,60.04181311900648,
-150,z,61,3,247,3,636.3993440999911,637.3979264999944,637.3979264999944,637.3979264999944,637.3979264999944,637.3979264999944,638.3976961000008,638.3976961000008,z,1,0.3405360000033397,None,085087,001,2023-10-17_19h25.08.681,lab in psych tut 4 quiz,2023.1.3,60.04181311900648,
-50,x,62,0,248,0,638.7656451999937,639.7641894999979,639.7641894999979,639.7641894999979,639.7641894999979,639.7641894999979,640.7638039000012,640.7638039000012,x,1,0.3170981000002939,None,085087,001,2023-10-17_19h25.08.681,lab in psych tut 4 quiz,2023.1.3,60.04181311900648,
150,v,62,1,249,1,641.0984534000017,642.0969574999908,642.0969574999908,642.0969574999908,642.0969574999908,642.0969574999908,643.0968340999971,643.0968340999971,v,1,0.6195322999992641,None,085087,001,2023-10-17_19h25.08.681,lab in psych tut 4 quiz,2023.1.3,60.04181311900648,
50,c,62,2,250,2,643.7478529999935,644.7464937999903,644.7464937999903,644.7464937999903,644.7464937999903,644.7464937999903,645.7462737000023,645.7462737000023,c,1,0.3504294000013033,None,085087,001,2023-10-17_19h25.08.681,lab in psych tut 4 quiz,2023.1.3,60.04181311900648,
-150,z,62,3,251,3,646.1308302999969,647.1293806000031,647.1293806000031,647.1293806000031,647.1293806000031,647.1293806000031,648.1290363000007,648.1290363000007,z,1,0.27548989999922924,None,085087,001,2023-10-17_19h25.08.681,lab in psych tut 4 quiz,2023.1.3,60.04181311900648,
-50,x,63,0,252,0,648.4305527999968,649.4289950999955,649.4289950999955,649.4289950999955,649.4289950999955,649.4289950999955,650.4286063000036,650.4286063000036,x,1,0.3956986999983201,None,085087,001,2023-10-17_19h25.08.681,lab in psych tut 4 quiz,2023.1.3,60.04181311900648,
150,v,63,1,253,1,650.8463496999902,651.8450460000022,651.8450460000022,651.8450460000022,651.8450460000022,651.8450460000022,652.8447240999958,652.8447240999958,v,1,0.3015635000047041,None,085087,001,2023-10-17_19h25.08.681,lab in psych tut 4 quiz,2023.1.3,60.04181311900648,
50,c,63,2,254,2,653.1796404999914,654.1777692000032,654.1777692000032,654.1777692000032,654.1777692000032,654.1777692000032,655.177660100002,655.177660100002,c,1,0.3141228000022238,None,085087,001,2023-10-17_19h25.08.681,lab in psych tut 4 quiz,2023.1.3,60.04181311900648,
-150,z,63,3,255,3,655.5123409999942,656.5106477999943,656.5106477999943,656.5106477999943,656.5106477999943,656.5106477999943,657.5104500000016,657.5104500000016,z,1,0.43600380000134464,None,085087,001,2023-10-17_19h25.08.681,lab in psych tut 4 quiz,2023.1.3,60.04181311900648,
-50,x,64,0,256,0,657.9783767999907,658.9770541000034,658.9770541000034,658.9770541000034,658.9770541000034,658.9770541000034,659.9766087000025,659.9766087000025,x,1,0.3346543999941787,None,085087,001,2023-10-17_19h25.08.681,lab in psych tut 4 quiz,2023.1.3,60.04181311900648,
150,v,64,1,257,1,660.344797800004,661.3431371000042,661.3431371000042,661.3431371000042,661.3431371000042,661.3431371000042,662.3428103000042,662.3428103000042,v,1,0.04270659999747295,None,085087,001,2023-10-17_19h25.08.681,lab in psych tut 4 quiz,2023.1.3,60.04181311900648,
50,c,64,2,258,2,662.4110278000007,663.4093326000002,663.4093326000002,663.4093326000002,663.4093326000002,663.4093326000002,664.4092826999986,664.4092826999986,c,1,0.4554640999995172,None,085087,001,2023-10-17_19h25.08.681,lab in psych tut 4 quiz,2023.1.3,60.04181311900648,
-150,z,64,3,259,3,664.8938509,665.8922775999963,665.8922775999963,665.8922775999963,665.8922775999963,665.8922775999963,666.8918828000023,666.8918828000023,z,1,0.36762760000419803,None,085087,001,2023-10-17_19h25.08.681,lab in psych tut 4 quiz,2023.1.3,60.04181311900648,
-50,x,65,0,260,0,667.2931080999988,668.2916503000015,668.2916503000015,668.2916503000015,668.2916503000015,668.2916503000015,669.2915225000033,669.2915225000033,x,1,0.3034767999924952,None,085087,001,2023-10-17_19h25.08.681,lab in psych tut 4 quiz,2023.1.3,60.04181311900648,
150,v,65,1,261,1,669.6262093999976,670.6245746999921,670.6245746999921,670.6245746999921,670.6245746999921,670.6245746999921,671.6245112000033,671.6245112000033,v,1,0.35016930001438595,None,085087,001,2023-10-17_19h25.08.681,lab in psych tut 4 quiz,2023.1.3,60.04181311900648,
50,c,65,2,262,2,671.9924157999922,672.990693300002,672.990693300002,672.990693300002,672.990693300002,672.990693300002,673.9905693000037,673.9905693000037,c,1,0.5056520000071032,None,085087,001,2023-10-17_19h25.08.681,lab in psych tut 4 quiz,2023.1.3,60.04181311900648,
-150,z,65,3,263,3,674.525568099998,675.5236031999957,675.5236031999957,675.5236031999957,675.5236031999957,675.5236031999957,676.5234495000041,676.5234495000041,z,1,0.3661449000064749,None,085087,001,2023-10-17_19h25.08.681,lab in psych tut 4 quiz,2023.1.3,60.04181311900648,
-50,x,66,0,264,0,676.9080489000044,677.9065353000042,677.9065353000042,677.9065353000042,677.9065353000042,677.9065353000042,678.9061259000009,678.9061259000009,x,1,0.17303119999996852,None,085087,001,2023-10-17_19h25.08.681,lab in psych tut 4 quiz,2023.1.3,60.04181311900648,
150,v,66,1,265,1,679.1076384999906,680.1060437999986,680.1060437999986,680.1060437999986,680.1060437999986,680.1060437999986,681.1059344999958,681.1059344999958,v,1,0.029204399994341657,None,085087,001,2023-10-17_19h25.08.681,lab in psych tut 4 quiz,2023.1.3,60.04181311900648,
50,c,66,2,266,2,681.1571990999946,682.1556908999919,682.1556908999919,682.1556908999919,682.1556908999919,682.1556908999919,683.1556027000042,683.1556027000042,c,1,0.7482659999950556,None,085087,001,2023-10-17_19h25.08.681,lab in psych tut 4 quiz,2023.1.3,60.04181311900648,
-150,z,66,3,267,3,683.9234682999959,684.9217098999943,684.9217098999943,684.9217098999943,684.9217098999943,684.9217098999943,685.9215234000003,685.9215234000003,z,1,0.32190030001220293,None,085087,001,2023-10-17_19h25.08.681,lab in psych tut 4 quiz,2023.1.3,60.04181311900648,
-50,x,67,0,268,0,686.272830899994,687.2712599999941,687.2712599999941,687.2712599999941,687.2712599999941,687.2712599999941,688.2709594999906,688.2709594999906,x,1,0.3842199999926379,None,085087,001,2023-10-17_19h25.08.681,lab in psych tut 4 quiz,2023.1.3,60.04181311900648,
150,v,67,1,269,1,688.689191700003,689.6876189000031,689.6876189000031,689.6876189000031,689.6876189000031,689.6876189000031,690.6874266999948,690.6874266999948,x,0,0.5739254000072833,None,085087,001,2023-10-17_19h25.08.681,lab in psych tut 4 quiz,2023.1.3,60.04181311900648,
50,c,67,2,270,2,691.2885351000004,692.2869793999998,692.2869793999998,692.2869793999998,692.2869793999998,692.2869793999998,693.2868727000023,693.2868727000023,c,1,1.0727271999930963,None,085087,001,2023-10-17_19h25.08.681,lab in psych tut 4 quiz,2023.1.3,60.04181311900648,
-150,z,67,3,271,3,694.3881526999903,695.3865186000039,695.3865186000039,695.3865186000039,695.3865186000039,695.3865186000039,696.3861198999948,696.3861198999948,z,1,0.9713579999952344,None,085087,001,2023-10-17_19h25.08.681,lab in psych tut 4 quiz,2023.1.3,60.04181311900648,
-50,x,68,0,272,0,697.3876279999968,698.3858964999963,698.3858964999963,698.3858964999963,698.3858964999963,698.3858964999963,699.3856686999934,699.3856686999934,x,1,1.4089568000053987,None,085087,001,2023-10-17_19h25.08.681,lab in psych tut 4 quiz,2023.1.3,60.04181311900648,
150,v,68,1,273,1,700.8199904999929,701.8185539999977,701.8185539999977,701.8185539999977,701.8185539999977,701.8185539999977,702.8183863000013,702.8183863000013,v,1,3.518297699993127,None,085087,001,2023-10-17_19h25.08.681,lab in psych tut 4 quiz,2023.1.3,60.04181311900648,
50,c,68,2,274,2,706.3688521000004,707.3673275000037,707.3673275000037,707.3673275000037,707.3673275000037,707.3673275000037,708.3674039000034,708.3674039000034,c,1,1.3461361000081524,None,085087,001,2023-10-17_19h25.08.681,lab in psych tut 4 quiz,2023.1.3,60.04181311900648,
-150,z,68,3,275,3,709.7348408999969,710.7333212999947,710.7333212999947,710.7333212999947,710.7333212999947,710.7333212999947,711.7332051999983,711.7332051999983,z,1,0.7341410000080941,None,085087,001,2023-10-17_19h25.08.681,lab in psych tut 4 quiz,2023.1.3,60.04181311900648,
-50,x,69,0,276,0,712.5014611999941,713.4996351000009,713.4996351000009,713.4996351000009,713.4996351000009,713.4996351000009,714.4992755999992,714.4992755999992,x,1,0.4987789000151679,None,085087,001,2023-10-17_19h25.08.681,lab in psych tut 4 quiz,2023.1.3,60.04181311900648,
150,v,69,1,277,1,715.0172576999903,716.0156480000005,716.0156480000005,716.0156480000005,716.0156480000005,716.0156480000005,717.0154437000019,717.0154437000019,v,1,0.24826930000563152,None,085087,001,2023-10-17_19h25.08.681,lab in psych tut 4 quiz,2023.1.3,60.04181311900648,
50,c,69,2,278,2,717.2835657999967,718.2820844999951,718.2820844999951,718.2820844999951,718.2820844999951,718.2820844999951,719.2817584000004,719.2817584000004,c,1,0.40870850000646897,None,085087,001,2023-10-17_19h25.08.681,lab in psych tut 4 quiz,2023.1.3,60.04181311900648,
-150,z,69,3,279,3,719.7162147999916,720.714833799997,720.714833799997,720.714833799997,720.714833799997,720.714833799997,721.7145555000025,721.7145555000025,z,1,0.3580400000064401,None,085087,001,2023-10-17_19h25.08.681,lab in psych tut 4 quiz,2023.1.3,60.04181311900648,
-50,x,70,0,280,0,722.0994023999956,723.0976288999955,723.0976288999955,723.0976288999955,723.0976288999955,723.0976288999955,724.0975304000021,724.0975304000021,x,1,0.5334554000000935,None,085087,001,2023-10-17_19h25.08.681,lab in psych tut 4 quiz,2023.1.3,60.04181311900648,
150,v,70,1,281,1,724.6492846000037,725.6472154999938,725.6472154999938,725.6472154999938,725.6472154999938,725.6472154999938,726.6468768999912,726.6468768999912,v,1,0.2906490000023041,None,085087,001,2023-10-17_19h25.08.681,lab in psych tut 4 quiz,2023.1.3,60.04181311900648,
50,c,70,2,282,2,726.964762100004,727.9633159999939,727.9633159999939,727.9633159999939,727.9633159999939,727.9633159999939,728.963176899997,728.963176899997,c,1,0.43633630000113044,None,085087,001,2023-10-17_19h25.08.681,lab in psych tut 4 quiz,2023.1.3,60.04181311900648,
-150,z,70,3,283,3,729.4313311000005,730.4295642999932,730.4295642999932,730.4295642999932,730.4295642999932,730.4295642999932,731.4292755999923,731.4292755999923,z,1,0.4526804000051925,None,085087,001,2023-10-17_19h25.08.681,lab in psych tut 4 quiz,2023.1.3,60.04181311900648,
-50,x,71,0,284,0,731.914048599996,732.9125097999931,732.9125097999931,732.9125097999931,732.9125097999931,732.9125097999931,733.912230499991,733.912230499991,x,1,0.6974563999974634,None,085087,001,2023-10-17_19h25.08.681,lab in psych tut 4 quiz,2023.1.3,60.04181311900648,
150,v,71,1,285,1,734.6301239000022,735.6284491999977,735.6284491999977,735.6284491999977,735.6284491999977,735.6284491999977,736.6282648999913,736.6282648999913,v,1,1.2685490000003483,None,085087,001,2023-10-17_19h25.08.681,lab in psych tut 4 quiz,2023.1.3,60.04181311900648,
50,c,71,2,286,2,737.9294523999997,738.9278505999973,738.9278505999973,738.9278505999973,738.9278505999973,738.9278505999973,739.9276165999909,739.9276165999909,c,1,0.7332677999947919,None,085087,001,2023-10-17_19h25.08.681,lab in psych tut 4 quiz,2023.1.3,60.04181311900648,
-150,z,71,3,287,3,740.678748499995,741.677303000004,741.677303000004,741.677303000004,741.677303000004,741.677303000004,742.6771646999987,742.6771646999987,z,1,0.4734760000137612,None,085087,001,2023-10-17_19h25.08.681,lab in psych tut 4 quiz,2023.1.3,60.04181311900648,
-50,x,72,0,288,0,743.1782058999961,744.1769408999971,744.1769408999971,744.1769408999971,744.1769408999971,744.1769408999971,745.1765932999988,745.1765932999988,x,1,0.3141215999930864,None,085087,001,2023-10-17_19h25.08.681,lab in psych tut 4 quiz,2023.1.3,60.04181311900648,
150,v,72,1,289,1,745.5114281999995,746.5098148999969,746.5098148999969,746.5098148999969,746.5098148999969,746.5098148999969,747.5094681999908,747.5094681999908,v,1,0.33757069999410305,None,085087,001,2023-10-17_19h25.08.681,lab in psych tut 4 quiz,2023.1.3,60.04181311900648,
50,c,72,2,290,2,747.8773893000034,748.8758310999983,748.8758310999983,748.8758310999983,748.8758310999983,748.8758310999983,749.8755985000025,749.8755985000025,c,1,0.10504490000312217,None,085087,001,2023-10-17_19h25.08.681,lab in psych tut 4 quiz,2023.1.3,60.04181311900648,
-150,z,72,3,291,3,750.0103343999945,751.0087114999915,751.0087114999915,751.0087114999915,751.0087114999915,751.0087114999915,752.0085277000035,752.0085277000035,z,1,0.4248713000124553,None,085087,001,2023-10-17_19h25.08.681,lab in psych tut 4 quiz,2023.1.3,60.04181311900648,
-50,x,73,0,292,0,752.4598187999945,753.4581786999915,753.4581786999915,753.4581786999915,753.4581786999915,753.4581786999915,754.4579473999911,754.4579473999911,x,1,0.12547860000631772,None,085087,001,2023-10-17_19h25.08.681,lab in psych tut 4 quiz,2023.1.3,60.04181311900648,
150,v,73,1,293,1,754.609372699997,755.607758099999,755.607758099999,755.607758099999,755.607758099999,755.607758099999,756.6078328000003,756.6078328000003,v,1,0.25504999999247957,None,085087,001,2023-10-17_19h25.08.681,lab in psych tut 4 quiz,2023.1.3,60.04181311900648,
50,c,73,2,294,2,756.8922050999972,757.8907016000012,757.8907016000012,757.8907016000012,757.8907016000012,757.8907016000012,758.8903872999945,758.8903872999945,c,1,0.1988681000075303,None,085087,001,2023-10-17_19h25.08.681,lab in psych tut 4 quiz,2023.1.3,60.04181311900648,
-150,z,73,3,295,3,759.1082519999909,760.1070368999935,760.1070368999935,760.1070368999935,760.1070368999935,760.1070368999935,761.1069523999904,761.1069523999904,z,1,0.382416500011459,None,085087,001,2023-10-17_19h25.08.681,lab in psych tut 4 quiz,2023.1.3,60.04181311900648,
-50,x,74,0,296,0,761.508124999993,762.5066638999997,762.5066638999997,762.5066638999997,762.5066638999997,762.5066638999997,763.5062899999903,763.5062899999903,x,1,0.3699784000054933,None,085087,001,2023-10-17_19h25.08.681,lab in psych tut 4 quiz,2023.1.3,60.04181311900648,
150,v,74,1,297,1,763.9074421999976,764.9061502999975,764.9061502999975,764.9061502999975,764.9061502999975,764.9061502999975,765.9058229999937,765.9058229999937,v,1,0.4795893000118667,None,085087,001,2023-10-17_19h25.08.681,lab in psych tut 4 quiz,2023.1.3,60.04181311900648,
50,c,74,2,298,2,766.4068572999968,767.4054590000014,767.4054590000014,767.4054590000014,767.4054590000014,767.4054590000014,768.4053122999903,768.4053122999903,c,1,0.45522709999931976,None,085087,001,2023-10-17_19h25.08.681,lab in psych tut 4 quiz,2023.1.3,60.04181311900648,
-150,z,74,3,299,3,768.9078201999946,769.9064118999959,769.9064118999959,769.9064118999959,769.9064118999959,769.9216544999945,770.9048579999944,770.9048579999944,z,1,0.3383942000073148,None,085087,001,2023-10-17_19h25.08.681,lab in psych tut 4 quiz,2023.1.3,60.04181311900648,
-50,x,75,0,300,0,771.2727707000013,772.2711444000015,772.2711444000015,772.2711444000015,772.2711444000015,772.2711444000015,773.2709980999934,773.2709980999934,x,1,0.1916617000097176,None,085087,001,2023-10-17_19h25.08.681,lab in psych tut 4 quiz,2023.1.3,60.04181311900648,
150,v,75,1,301,1,773.4890855999984,774.4875460000039,774.4875460000039,774.4875460000039,774.4875460000039,774.4875460000039,775.4872872999986,775.4872872999986,c,0,0.28087210000376217,None,085087,001,2023-10-17_19h25.08.681,lab in psych tut 4 quiz,2023.1.3,60.04181311900648,
50,c,75,2,302,2,775.7887516999908,776.7869961999968,776.7869961999968,776.7869961999968,776.7869961999968,776.7869961999968,777.7867656000017,777.7867656000017,c,1,0.7174900999962119,None,085087,001,2023-10-17_19h25.08.681,lab in psych tut 4 quiz,2023.1.3,60.04181311900648,
-150,z,75,3,303,3,778.5380624999962,779.536471200001,779.536471200001,779.536471200001,779.536471200001,779.536471200001,780.5362893999991,780.5362893999991,z,1,0.442144400003599,None,085087,001,2023-10-17_19h25.08.681,lab in psych tut 4 quiz,2023.1.3,60.04181311900648,
-50,x,76,0,304,0,781.0043333999929,782.0026546000008,782.0026546000008,782.0026546000008,782.0026546000008,782.0026546000008,783.0024143999908,783.0024143999908,x,1,0.4558568000065861,None,085087,001,2023-10-17_19h25.08.681,lab in psych tut 4 quiz,2023.1.3,60.04181311900648,
150,v,76,1,305,1,783.4873729999963,784.4854618999962,784.4854618999962,784.4854618999962,784.4854618999962,784.4854618999962,785.485457399991,785.485457399991,v,1,0.840811299989582,None,085087,001,2023-10-17_19h25.08.681,lab in psych tut 4 quiz,2023.1.3,60.04181311900648,
50,c,76,2,306,2,786.3531097999949,787.3516551999928,787.3516551999928,787.3516551999928,787.3516551999928,787.3516551999928,788.3512898999907,788.3512898999907,c,1,0.42382460000226274,None,085087,001,2023-10-17_19h25.08.681,lab in psych tut 4 quiz,2023.1.3,60.04181311900648,
-150,z,76,3,307,3,788.8026988999918,789.8011273000011,789.8011273000011,789.8011273000011,789.8011273000011,789.8011273000011,790.8008204999933,790.8008204999933,z,1,0.40407889999914914,None,085087,001,2023-10-17_19h25.08.681,lab in psych tut 4 quiz,2023.1.3,60.04181311900648,
-50,x,77,0,308,0,791.2355336000037,792.2340744999965,792.2340744999965,792.2340744999965,792.2340744999965,792.2340744999965,793.2337397999945,793.2337397999945,x,1,0.568883600004483,None,085087,001,2023-10-17_19h25.08.681,lab in psych tut 4 quiz,2023.1.3,60.04181311900648,
150,v,77,1,309,1,793.8350531000033,794.8334864999924,794.8334864999924,794.8334864999924,794.8334864999924,794.8334864999924,795.8331887999957,795.8331887999957,v,1,0.43417629999748897,None,085087,001,2023-10-17_19h25.08.681,lab in psych tut 4 quiz,2023.1.3,60.04181311900648,
50,c,77,2,310,2,796.3014553999965,797.2999456999969,797.2999456999969,797.2999456999969,797.2999456999969,797.2999456999969,798.2993471999944,798.2993471999944,c,1,0.4523081999941496,None,085087,001,2023-10-17_19h25.08.681,lab in psych tut 4 quiz,2023.1.3,60.04181311900648,
-150,z,77,3,311,3,798.7839194999979,799.782604299995,799.782604299995,799.782604299995,799.782604299995,799.782604299995,800.7823355,800.7823355,z,1,0.359887799990247,None,085087,001,2023-10-17_19h25.08.681,lab in psych tut 4 quiz,2023.1.3,60.04181311900648,
-50,x,78,0,312,0,801.1668613999936,802.1653091000044,802.1653091000044,802.1653091000044,802.1653091000044,802.1653091000044,803.1651779999956,803.1651779999956,x,1,0.3215263000020059,None,085087,001,2023-10-17_19h25.08.681,lab in psych tut 4 quiz,2023.1.3,60.04181311900648,
150,v,78,1,313,1,803.516644000003,804.5149525000015,804.5149525000015,804.5149525000015,804.5149525000015,804.5149525000015,805.5147290000023,805.5147290000023,v,1,0.519938400000683,None,085087,001,2023-10-17_19h25.08.681,lab in psych tut 4 quiz,2023.1.3,60.04181311900648,
50,c,78,2,314,2,806.0659214999905,807.0644341000007,807.0644341000007,807.0644341000007,807.0644341000007,807.0644341000007,808.0642350999988,808.0642350999988,c,1,0.23636700000497513,None,085087,001,2023-10-17_19h25.08.681,lab in psych tut 4 quiz,2023.1.3,60.04181311900648,
-150,z,78,3,315,3,808.3320689999964,809.3306480000028,809.3306480000028,809.3306480000028,809.3306480000028,809.3306480000028,810.3302512999944,810.3302512999944,z,1,0.21445709999534301,None,085087,001,2023-10-17_19h25.08.681,lab in psych tut 4 quiz,2023.1.3,60.04181311900648,
-50,x,79,0,316,0,810.5649085999903,811.563594399995,811.563594399995,811.563594399995,811.563594399995,811.563594399995,812.5631677999918,812.5631677999918,x,1,0.4729462999966927,None,085087,001,2023-10-17_19h25.08.681,lab in psych tut 4 quiz,2023.1.3,60.04181311900648,
150,v,79,1,317,1,813.0646335999918,814.0630566000036,814.0630566000036,814.0630566000036,814.0630566000036,814.0630566000036,815.0628436999978,815.0628436999978,v,1,0.5220572000107495,None,085087,001,2023-10-17_19h25.08.681,lab in psych tut 4 quiz,2023.1.3,60.04181311900648,
50,c,79,2,318,2,815.6140472999978,816.6124477999983,816.6124477999983,816.6124477999983,816.6124477999983,816.6124477999983,817.6122840000025,817.6122840000025,c,1,0.7617813999968348,None,085087,001,2023-10-17_19h25.08.681,lab in psych tut 4 quiz,2023.1.3,60.04181311900648,
-150,z,79,3,319,3,818.396912199998,819.395359999995,819.395359999995,819.395359999995,819.395359999995,819.395359999995,820.3949630999996,820.3949630999996,z,1,0.6716751000058139,None,085087,001,2023-10-17_19h25.08.681,lab in psych tut 4 quiz,2023.1.3,60.04181311900648,
-50,x,80,0,320,0,821.0964926000015,822.0948405999952,822.0948405999952,822.0948405999952,822.0948405999952,822.0948405999952,823.0945247999916,823.0945247999916,x,1,0.38523040000291076,None,085087,001,2023-10-17_19h25.08.681,lab in psych tut 4 quiz,2023.1.3,60.04181311900648,
150,v,80,1,321,1,823.5125030999916,824.5107814999938,824.5107814999938,824.5107814999938,824.5107814999938,824.5107814999938,825.5106126000028,825.5106126000028,v,1,0.30856479999783915,None,085087,001,2023-10-17_19h25.08.681,lab in psych tut 4 quiz,2023.1.3,60.04181311900648,
50,c,80,2,322,2,825.8455662999913,826.8436875999905,826.8436875999905,826.8436875999905,826.8436875999905,826.8436875999905,827.8437074999965,827.8437074999965,c,1,0.2937226000067312,None,085087,001,2023-10-17_19h25.08.681,lab in psych tut 4 quiz,2023.1.3,60.04181311900648,
-150,z,80,3,323,3,828.1615270000038,829.1600617999939,829.1600617999939,829.1600617999939,829.1600617999939,829.1600617999939,830.1599461000005,830.1599461000005,z,1,0.574030900010257,None,085087,001,2023-10-17_19h25.08.681,lab in psych tut 4 quiz,2023.1.3,60.04181311900648,
-50,x,81,0,324,0,830.7610245999967,831.7595617000043,831.7595617000043,831.7595617000043,831.7595617000043,831.7595617000043,832.7593259999994,832.7593259999994,x,1,0.48546989999886137,None,085087,001,2023-10-17_19h25.08.681,lab in psych tut 4 quiz,2023.1.3,60.04181311900648,
150,v,81,1,325,1,833.2771663000021,834.2756659000006,834.2756659000006,834.2756659000006,834.2756659000006,834.2756659000006,835.2754512999963,835.2754512999963,v,1,0.23437469999771565,None,085087,001,2023-10-17_19h25.08.681,lab in psych tut 4 quiz,2023.1.3,60.04181311900648,
50,c,81,2,326,2,835.5436311999947,836.5419452999922,836.5419452999922,836.5419452999922,836.5419452999922,836.5419452999922,837.5415963999985,837.5415963999985,c,1,0.13876230000460055,None,085087,001,2023-10-17_19h25.08.681,lab in psych tut 4 quiz,2023.1.3,60.04181311900648,
-150,z,81,3,327,3,837.7094834000018,838.7081605999992,838.7081605999992,838.7081605999992,838.7081605999992,838.7081605999992,839.7078432999988,839.7078432999988,z,1,0.06701730001077522,None,085087,001,2023-10-17_19h25.08.681,lab in psych tut 4 quiz,2023.1.3,60.04181311900648,
-50,x,82,0,328,0,839.7926061000035,840.7909994999936,840.7909994999936,840.7909994999936,840.7909994999936,840.7909994999936,841.7907090999943,841.7907090999943,x,1,0.10017859999788925,None,085087,001,2023-10-17_19h25.08.681,lab in psych tut 4 quiz,2023.1.3,60.04181311900648,
150,v,82,1,329,1,841.908686499999,842.907363899998,842.907363899998,842.907363899998,842.907363899998,842.907363899998,843.9071081000002,843.9071081000002,v,1,0.39550290000624955,None,085087,001,2023-10-17_19h25.08.681,lab in psych tut 4 quiz,2023.1.3,60.04181311900648,
50,c,82,2,330,2,844.325237099998,845.323578800002,845.323578800002,845.323578800002,845.323578800002,845.323578800002,846.323395600004,846.323395600004,c,1,0.002118699994753115,None,085087,001,2023-10-17_19h25.08.681,lab in psych tut 4 quiz,2023.1.3,60.04181311900648,
-150,z,82,3,331,3,846.3579002999904,847.356623300002,847.356623300002,847.356623300002,847.356623300002,847.356623300002,848.3561950000003,848.3561950000003,z,1,0.02419370001007337,None,085087,001,2023-10-17_19h25.08.681,lab in psych tut 4 quiz,2023.1.3,60.04181311900648,
-50,x,83,0,332,0,848.4075045999925,849.4059144999919,849.4059144999919,849.4059144999919,849.4059144999919,849.4059144999919,850.4058286999934,850.4058286999934,x,1,0.3378201000014087,None,085087,001,2023-10-17_19h25.08.681,lab in psych tut 4 quiz,2023.1.3,60.04181311900648,
150,v,83,1,333,1,850.7739063999907,851.7721977000037,851.7721977000037,851.7721977000037,851.7721977000037,851.7721977000037,852.7720479999989,852.7720479999989,v,1,0.18431779999809805,None,085087,001,2023-10-17_19h25.08.681,lab in psych tut 4 quiz,2023.1.3,60.04181311900648,
50,c,83,2,334,2,852.9900334999984,853.9883956999984,853.9883956999984,853.9883956999984,853.9883956999984,853.9883956999984,854.9884635999915,854.9884635999915,c,1,0.08084880000387784,None,085087,001,2023-10-17_19h25.08.681,lab in psych tut 4 quiz,2023.1.3,60.04181311900648,
-150,z,83,3,335,3,855.0896684000036,856.0881631999946,856.0881631999946,856.0881631999946,856.0881631999946,856.0881631999946,857.0879924000037,857.0879924000037,z,1,0.08870239999669138,None,085087,001,2023-10-17_19h25.08.681,lab in psych tut 4 quiz,2023.1.3,60.04181311900648,
-50,x,84,0,336,0,857.2060227000038,858.2044404000044,858.2044404000044,858.2044404000044,858.2044404000044,858.2044404000044,859.2041450999968,859.2041450999968,x,1,0.5328301999979885,None,085087,001,2023-10-17_19h25.08.681,lab in psych tut 4 quiz,2023.1.3,60.04181311900648,
150,v,84,1,337,1,859.7555262999958,860.7539307999978,860.7539307999978,860.7539307999978,860.7539307999978,860.7539307999978,861.7535999999964,861.7535999999964,v,1,0.2345562999980757,None,085087,001,2023-10-17_19h25.08.681,lab in psych tut 4 quiz,2023.1.3,60.04181311900648,
50,c,84,2,338,2,862.0212983999954,863.0198807999986,863.0198807999986,863.0198807999986,863.0198807999986,863.0198807999986,864.0198811000009,864.0198811000009,c,1,0.07035689998883754,None,085087,001,2023-10-17_19h25.08.681,lab in psych tut 4 quiz,2023.1.3,60.04181311900648,
-150,z,84,3,339,3,864.1212726999947,865.119563500004,865.119563500004,865.119563500004,865.119563500004,865.119563500004,866.1193601999985,866.1193601999985,z,1,0.12818569999944884,None,085087,001,2023-10-17_19h25.08.681,lab in psych tut 4 quiz,2023.1.3,60.04181311900648,
-50,x,85,0,340,0,866.2707376000035,867.2693118000025,867.2693118000025,867.2693118000025,867.2693118000025,867.2693118000025,868.2689944000012,868.2689944000012,x,1,0.005644700009725057,None,085087,001,2023-10-17_19h25.08.681,lab in psych tut 4 quiz,2023.1.3,60.04181311900648,
150,v,85,1,341,1,868.3038467000006,869.302159999992,869.302159999992,869.302159999992,869.302159999992,869.302159999992,870.3020103000017,870.3020103000017,v,1,0.7833519999985583,None,085087,001,2023-10-17_19h25.08.681,lab in psych tut 4 quiz,2023.1.3,60.04181311900648,
50,c,85,2,342,2,871.1029620000045,872.1015509999997,872.1015509999997,872.1015509999997,872.1015509999997,872.1015509999997,873.1012762000028,873.1012762000028,c,1,0.5231758000008995,None,085087,001,2023-10-17_19h25.08.681,lab in psych tut 4 quiz,2023.1.3,60.04181311900648,
-150,z,85,3,343,3,873.6525993999967,874.6509850000002,874.6509850000002,874.6509850000002,874.6509850000002,874.6509850000002,875.6508245000005,875.6508245000005,z,1,0.3346048000094015,None,085087,001,2023-10-17_19h25.08.681,lab in psych tut 4 quiz,2023.1.3,60.04181311900648,
-50,x,86,0,344,0,876.0190846999903,877.0170015999902,877.0170015999902,877.0170015999902,877.0170015999902,877.0170015999902,878.017018700004,878.017018700004,x,1,0.4522623999946518,None,085087,001,2023-10-17_19h25.08.681,lab in psych tut 4 quiz,2023.1.3,60.04181311900648,
150,v,86,1,345,1,878.5017076999939,879.5004447999963,879.5004447999963,879.5004447999963,879.5004447999963,879.5004447999963,880.5000306000002,880.5000306000002,v,1,0.3029404999979306,None,085087,001,2023-10-17_19h25.08.681,lab in psych tut 4 quiz,2023.1.3,60.04181311900648,
50,c,86,2,346,2,880.8344529000024,881.8330136000004,881.8330136000004,881.8330136000004,881.8330136000004,881.8330136000004,882.8327659999923,882.8327659999923,c,1,0.3648773000022629,None,085087,001,2023-10-17_19h25.08.681,lab in psych tut 4 quiz,2023.1.3,60.04181311900648,
-150,z,86,3,347,3,883.2172165999946,884.2158981999964,884.2158981999964,884.2158981999964,884.2158981999964,884.2158981999964,885.2155545999995,885.2155545999995,z,1,0.4062836000084644,None,085087,001,2023-10-17_19h25.08.681,lab in psych tut 4 quiz,2023.1.3,60.04181311900648,
-50,x,87,0,348,0,885.6503931999905,886.6488217000006,886.6488217000006,886.6488217000006,886.6488217000006,886.6488217000006,887.6483840000001,887.6483840000001,x,1,0.33115209999959916,None,085087,001,2023-10-17_19h25.08.681,lab in psych tut 4 quiz,2023.1.3,60.04181311900648,
150,v,87,1,349,1,887.9998859999905,888.9981334999902,888.9981334999902,888.9981334999902,888.9981334999902,888.9981334999902,889.9980215999967,889.9980215999967,v,1,0.2869896000047447,None,085087,001,2023-10-17_19h25.08.681,lab in psych tut 4 quiz,2023.1.3,60.04181311900648,
50,c,87,2,350,2,890.3160053000029,891.3145334000001,891.3145334000001,891.3145334000001,891.3145334000001,891.3145334000001,892.3142598999984,892.3142598999984,c,1,0.3117086999991443,None,085087,001,2023-10-17_19h25.08.681,lab in psych tut 4 quiz,2023.1.3,60.04181311900648,
-150,z,87,3,351,3,892.6490255999961,893.6472133999923,893.6472133999923,893.6472133999923,893.6472133999923,893.6472133999923,894.6470818999951,894.6470818999951,z,1,0.811601299996255,None,085087,001,2023-10-17_19h25.08.681,lab in psych tut 4 quiz,2023.1.3,60.04181311900648,
-50,x,88,0,352,0,895.4815987000038,896.4800510999921,896.4800510999921,896.4800510999921,896.4800510999921,896.4800510999921,897.4800011000043,897.4800011000043,x,1,0.5508556999993743,None,085087,001,2023-10-17_19h25.08.681,lab in psych tut 4 quiz,2023.1.3,60.04181311900648,
150,v,88,1,353,1,898.0647415999993,899.0628500000021,899.0628500000021,899.0628500000021,899.0628500000021,899.0628500000021,900.0625887999922,900.0625887999922,v,1,0.5542400000122143,None,085087,001,2023-10-17_19h25.08.681,lab in psych tut 4 quiz,2023.1.3,60.04181311900648,
50,c,88,2,354,2,900.6473089999927,901.6458588999958,901.6458588999958,901.6458588999958,901.6458588999958,901.6458588999958,902.6455628999975,902.6455628999975,c,1,0.31997450000199024,None,085087,001,2023-10-17_19h25.08.681,lab in psych tut 4 quiz,2023.1.3,60.04181311900648,
-150,z,88,3,355,3,902.9965641000017,903.9953574999963,903.9953574999963,903.9953574999963,903.9953574999963,903.9953574999963,904.9951093999989,904.9951093999989,z,1,0.42817129999457393,None,085087,001,2023-10-17_19h25.08.681,lab in psych tut 4 quiz,2023.1.3,60.04181311900648,
-50,x,89,0,356,0,905.4465565999999,906.444688100004,906.444688100004,906.444688100004,906.444688100004,906.444688100004,907.4445922000014,907.4445922000014,x,1,0.3227178999950411,None,085087,001,2023-10-17_19h25.08.681,lab in psych tut 4 quiz,2023.1.3,60.04181311900648,
150,v,89,1,357,1,907.7957309999911,908.7943016999925,908.7943016999925,908.7943016999925,908.7943016999925,908.7943016999925,909.7939673999936,909.7939673999936,v,1,0.5422785000118893,None,085087,001,2023-10-17_19h25.08.681,lab in psych tut 4 quiz,2023.1.3,60.04181311900648,
50,c,89,2,358,2,910.3619163999974,911.3604762000032,911.3604762000032,911.3604762000032,911.3604762000032,911.3604762000032,912.3602499999979,912.3602499999979,c,1,0.5589229000033811,None,085087,001,2023-10-17_19h25.08.681,lab in psych tut 4 quiz,2023.1.3,60.04181311900648,
