study_words,test,trials.thisRepN,trials.thisTrialN,trials.thisN,trials.thisIndex,trials_2.thisRepN,trials_2.thisTrialN,trials_2.thisN,trials_2.thisIndex,text.started,slider.started,slider.response,slider.rt,text_2.started,textbox.started,text_3.started,mouse.started,textbox.text,mouse.x,mouse.y,mouse.leftButton,mouse.midButton,mouse.rightButton,mouse.time,mouse.clicked_name,participant,session,date,expName,psychopyVersion,frameRate,
vase,,0,0,0,0,,,,,15.480194700008724,15.480194700008724,1.953125,1.5856660000281408,,,,,,,,,,,,,2nd priming,001,2023-10-05_22h16.26.433,lab in psych tut5,2023.1.3,60.01532791268924,
piano,,0,1,1,4,,,,,17.088826599996537,17.088826599996537,1.953125,1.309146299958229,,,,,,,,,,,,,2nd priming,001,2023-10-05_22h16.26.433,lab in psych tut5,2023.1.3,60.01532791268924,
book ,,0,2,2,2,,,,,18.426498100045137,18.426498100045137,1.0260416666666667,0.9691077999887057,,,,,,,,,,,,,2nd priming,001,2023-10-05_22h16.26.433,lab in psych tut5,2023.1.3,60.01532791268924,
tiger,,0,3,3,1,,,,,19.4254832000006,19.4254832000006,1.0260416666666667,0.7192357000312768,,,,,,,,,,,,,2nd priming,001,2023-10-05_22h16.26.433,lab in psych tut5,2023.1.3,60.01532791268924,
cushion,,0,4,4,3,,,,,20.169084200053476,20.169084200053476,1.0260416666666667,0.5911530000157654,,,,,,,,,,,,,2nd priming,001,2023-10-05_22h16.26.433,lab in psych tut5,2023.1.3,60.01532791268924,
book ,,1,0,5,2,,,,,20.784864100045525,20.784864100045525,1.0260416666666667,0.5252968999557197,,,,,,,,,,,,,2nd priming,001,2023-10-05_22h16.26.433,lab in psych tut5,2023.1.3,60.01532791268924,
tiger,,1,1,6,1,,,,,21.333699800015893,21.333699800015893,1.0260416666666667,0.5762189999804832,,,,,,,,,,,,,2nd priming,001,2023-10-05_22h16.26.433,lab in psych tut5,2023.1.3,60.01532791268924,
vase,,1,2,7,0,,,,,21.93132400000468,21.93132400000468,1.0260416666666667,0.4456443000235595,,,,,,,,,,,,,2nd priming,001,2023-10-05_22h16.26.433,lab in psych tut5,2023.1.3,60.01532791268924,
piano,,1,3,8,4,,,,,22.407256600039545,22.407256600039545,1.0260416666666667,0.4394546000403352,,,,,,,,,,,,,2nd priming,001,2023-10-05_22h16.26.433,lab in psych tut5,2023.1.3,60.01532791268924,
cushion,,1,4,9,3,,,,,22.87581580004189,22.87581580004189,1.0260416666666667,0.43566249997820705,,,,,,,,,,,,,2nd priming,001,2023-10-05_22h16.26.433,lab in psych tut5,2023.1.3,60.01532791268924,
book ,,2,0,10,2,,,,,23.3337888000533,23.3337888000533,1.0260416666666667,0.44290929997805506,,,,,,,,,,,,,2nd priming,001,2023-10-05_22h16.26.433,lab in psych tut5,2023.1.3,60.01532791268924,
cushion,,2,1,11,3,,,,,23.799947699997574,23.799947699997574,1.0260416666666667,0.395205199951306,,,,,,,,,,,,,2nd priming,001,2023-10-05_22h16.26.433,lab in psych tut5,2023.1.3,60.01532791268924,
vase,,2,2,12,0,,,,,24.224944800022058,24.224944800022058,1.0260416666666667,0.38606230000732467,,,,,,,,,,,,,2nd priming,001,2023-10-05_22h16.26.433,lab in psych tut5,2023.1.3,60.01532791268924,
tiger,,2,3,13,1,,,,,24.632845400017686,24.632845400017686,1.0260416666666667,0.3930111999507062,,,,,,,,,,,,,2nd priming,001,2023-10-05_22h16.26.433,lab in psych tut5,2023.1.3,60.01532791268924,
piano,,2,4,14,4,,,,,25.049018000019714,25.049018000019714,1.0260416666666667,0.4097481000353582,,,,,,,,,,,,,2nd priming,001,2023-10-05_22h16.26.433,lab in psych tut5,2023.1.3,60.01532791268924,
piano,,3,0,15,4,,,,,25.480413600045722,25.480413600045722,1.0260416666666667,0.3623960000113584,,,,,,,,,,,,,2nd priming,001,2023-10-05_22h16.26.433,lab in psych tut5,2023.1.3,60.01532791268924,
cushion,,3,1,16,3,,,,,25.86705250001978,25.86705250001978,1.0260416666666667,0.3091157000162639,,,,,,,,,,,,,2nd priming,001,2023-10-05_22h16.26.433,lab in psych tut5,2023.1.3,60.01532791268924,
vase,,3,2,17,0,,,,,26.200102400034666,26.200102400034666,1.0260416666666667,0.3792212999542244,,,,,,,,,,,,,2nd priming,001,2023-10-05_22h16.26.433,lab in psych tut5,2023.1.3,60.01532791268924,
tiger,,3,3,18,1,,,,,26.60425270005362,26.60425270005362,1.0260416666666667,0.45545020001009107,,,,,,,,,,,,,2nd priming,001,2023-10-05_22h16.26.433,lab in psych tut5,2023.1.3,60.01532791268924,
book ,,3,4,19,2,,,,,27.091092000016943,27.091092000016943,1.0260416666666667,0.6521000000066124,,,,,,,,,,,,,2nd priming,001,2023-10-05_22h16.26.433,lab in psych tut5,2023.1.3,60.01532791268924,
book ,,4,0,20,2,,,,,27.76352290000068,27.76352290000068,1.0260416666666667,0.3637112000142224,,,,,,,,,,,,,2nd priming,001,2023-10-05_22h16.26.433,lab in psych tut5,2023.1.3,60.01532791268924,
piano,,4,1,21,4,,,,,28.1542304000468,28.1542304000468,1.0260416666666667,0.7044747999752872,,,,,,,,,,,,,2nd priming,001,2023-10-05_22h16.26.433,lab in psych tut5,2023.1.3,60.01532791268924,
vase,,4,2,22,0,,,,,28.88136719999602,28.88136719999602,1.0260416666666667,0.6433274999726564,,,,,,,,,,,,,2nd priming,001,2023-10-05_22h16.26.433,lab in psych tut5,2023.1.3,60.01532791268924,
cushion,,4,3,23,3,,,,,29.550311400031205,29.550311400031205,1.0260416666666667,0.6084887000033632,,,,,,,,,,,,,2nd priming,001,2023-10-05_22h16.26.433,lab in psych tut5,2023.1.3,60.01532791268924,
tiger,,4,4,24,1,,,,,30.179678400047123,30.179678400047123,1.0260416666666667,0.6425506000523455,,,,,,,,,,,,,2nd priming,001,2023-10-05_22h16.26.433,lab in psych tut5,2023.1.3,60.01532791268924,
,c_s_i_n,,,,,0,0,0,3,,,,,30.849936500017066,30.849936500017066,30.849936500017066,0.011930899985600263,cushion,"[-0.4934895833333333, -0.21875, -0.022135416666666668]","[-0.3020833333333333, 0.052083333333333336, -0.2942708333333333]","[1, 1, 1]","[0, 0, 0]","[0, 0, 0]","[0.2352930000051856, 3.7013527000090107, 4.83426309999777]",['text_3'],2nd priming,001,2023-10-05_22h16.26.433,lab in psych tut5,2023.1.3,60.01532791268924,
,_ia_n_,,,,,0,1,1,4,,,,,35.69691930001136,35.69691930001136,35.69691930001136,0.005711200006771833,"piano
",[-0.02734375],[-0.2916666666666667],[1],[0],[0],[4.406401699990965],['text_3'],2nd priming,001,2023-10-05_22h16.26.433,lab in psych tut5,2023.1.3,60.01532791268924,
,_a_e,,,,,0,2,2,0,,,,,40.10951160005061,40.10951160005061,40.10951160005061,0.004469199979212135,vase,[-0.02734375],[-0.2916666666666667],[1],[0],[0],[3.0102978000068106],['text_3'],2nd priming,001,2023-10-05_22h16.26.433,lab in psych tut5,2023.1.3,60.01532791268924,
,t_g_r,,,,,0,3,3,1,,,,,43.131767500017304,43.131767500017304,43.131767500017304,0.007390599988866597,tiger,[-0.026041666666666668],[-0.30078125],[1],[0],[0],[3.138613599992823],['text_3'],2nd priming,001,2023-10-05_22h16.26.433,lab in psych tut5,2023.1.3,60.01532791268924,
,_oo_,,,,,0,4,4,2,,,,,46.2754033000092,46.2754033000092,46.2754033000092,0.004336199956014752,book,[-0.016927083333333332],[-0.3138020833333333],[1],[0],[0],[2.3927917999681085],['text_3'],2nd priming,001,2023-10-05_22h16.26.433,lab in psych tut5,2023.1.3,60.01532791268924,
,c_s_i_n,,,,,1,0,5,3,,,,,48.67557310004486,48.67557310004486,48.67557310004486,0.00524490000680089,cushion,[-0.037760416666666664],[-0.32421875],[1],[0],[0],[2.6757605000166222],['text_3'],2nd priming,001,2023-10-05_22h16.26.433,lab in psych tut5,2023.1.3,60.01532791268924,
,t_g_r,,,,,1,1,6,1,,,,,51.3571541000274,51.3571541000274,51.3571541000274,0.004329499963205308,tiger,[-0.029947916666666668],[-0.31640625],[1],[0],[0],[2.510223000019323],['text_3'],2nd priming,001,2023-10-05_22h16.26.433,lab in psych tut5,2023.1.3,60.01532791268924,
,_a_e,,,,,1,2,7,0,,,,,53.87571170000592,53.87571170000592,53.87571170000592,0.005482900014612824,vase,[-0.022135416666666668],[-0.3072916666666667],[1],[0],[0],[2.2090231999754906],['text_3'],2nd priming,001,2023-10-05_22h16.26.433,lab in psych tut5,2023.1.3,60.01532791268924,
,_oo_,,,,,1,3,8,2,,,,,56.09202410001308,56.09202410001308,56.09202410001308,0.005102400027681142,book,[0.0026041666666666665],[-0.2721354166666667],[1],[0],[0],[2.4081684999982826],['text_3'],2nd priming,001,2023-10-05_22h16.26.433,lab in psych tut5,2023.1.3,60.01532791268924,
,_ia_n_,,,,,1,4,9,4,,,,,58.5079918000265,58.5079918000265,58.5079918000265,0.005238100013229996,piano,[-0.014322916666666666],[-0.2994791666666667],[1],[0],[0],[2.775639300001785],['text_3'],2nd priming,001,2023-10-05_22h16.26.433,lab in psych tut5,2023.1.3,60.01532791268924,
,c_s_i_n,,,,,2,0,10,3,,,,,61.28984580002725,61.28984580002725,61.28984580002725,0.0051877000369131565,cushion,"[-0.061197916666666664, -0.044270833333333336]","[-0.3346354166666667, -0.3177083333333333]","[1, 1]","[0, 0]","[0, 0]","[3.008502899960149, 3.758496499969624]",['text_3'],2nd priming,001,2023-10-05_22h16.26.433,lab in psych tut5,2023.1.3,60.01532791268924,
,_oo_,,,,,2,1,11,2,,,,,65.05653780000284,65.05653780000284,65.05653780000284,0.004773400025442243,book,[-0.022135416666666668],[-0.3059895833333333],[1],[0],[0],[2.3085808999603614],['text_3'],2nd priming,001,2023-10-05_22h16.26.433,lab in psych tut5,2023.1.3,60.01532791268924,
,t_g_r,,,,,2,2,12,1,,,,,67.36875270004384,67.36875270004384,67.36875270004384,0.002379499957896769,tiger,[-0.014322916666666666],[-0.3046875],[1],[0],[0],[2.53019660001155],['text_3'],2nd priming,001,2023-10-05_22h16.26.433,lab in psych tut5,2023.1.3,60.01532791268924,
,_ia_n_,,,,,2,3,13,4,,,,,69.90319780004211,69.90319780004211,69.90319780004211,0.004972800030373037,paino,[-0.01171875],[-0.3046875],[1],[0],[0],[2.342721500026528],['text_3'],2nd priming,001,2023-10-05_22h16.26.433,lab in psych tut5,2023.1.3,60.01532791268924,
,_a_e,,,,,2,4,14,0,,,,,72.25472710002214,72.25472710002214,72.25472710002214,0.004752399981953204,vase,[0.0078125],[-0.30078125],[1],[0],[0],[2.642136999987997],['text_3'],2nd priming,001,2023-10-05_22h16.26.433,lab in psych tut5,2023.1.3,60.01532791268924,
,_ia_n_,,,,,3,0,15,4,,,,,74.90405890002148,74.90405890002148,74.90405890002148,0.005857900017872453,piano,[-0.0013020833333333333],[-0.296875],[1],[0],[0],[2.3746663000201806],['text_3'],2nd priming,001,2023-10-05_22h16.26.433,lab in psych tut5,2023.1.3,60.01532791268924,
,_a_e,,,,,3,1,16,0,,,,,77.28614360000938,77.28614360000938,77.28614360000938,0.004541400005109608,vase,[-0.005208333333333333],[-0.2981770833333333],[1],[0],[0],[2.359873500012327],['text_3'],2nd priming,001,2023-10-05_22h16.26.433,lab in psych tut5,2023.1.3,60.01532791268924,
,c_s_i_n,,,,,3,2,17,3,,,,,79.6520920000039,79.6520920000039,79.6520920000039,0.00522409996483475,cushion,[-0.0013020833333333333],[-0.3111979166666667],[1],[0],[0],[2.9422173999482766],['text_3'],2nd priming,001,2023-10-05_22h16.26.433,lab in psych tut5,2023.1.3,60.01532791268924,
,t_g_r,,,,,3,3,18,1,,,,,82.60161100002006,82.60161100002006,82.60161100002006,0.004505400022026151,tiger,[-0.010416666666666666],[-0.3033854166666667],[1],[0],[0],[2.642984299978707],['text_3'],2nd priming,001,2023-10-05_22h16.26.433,lab in psych tut5,2023.1.3,60.01532791268924,
,_oo_,,,,,3,4,19,2,,,,,85.2526662000455,85.2526662000455,85.2526662000455,0.0048454999923706055,book,[-0.022135416666666668],[-0.3125],[1],[0],[0],[2.7752239999826998],['text_3'],2nd priming,001,2023-10-05_22h16.26.433,lab in psych tut5,2023.1.3,60.01532791268924,
,c_s_i_n,,,,,4,0,20,3,,,,,88.03488099999959,88.03488099999959,88.03488099999959,0.005202999978791922,cushion,[-0.028645833333333332],[-0.3177083333333333],[1],[0],[0],[3.625775199965574],['text_3'],2nd priming,001,2023-10-05_22h16.26.433,lab in psych tut5,2023.1.3,60.01532791268924,
,_a_e,,,,,4,1,21,0,,,,,91.66657070000656,91.66657070000656,91.66657070000656,0.004821599985007197,vase,[-0.026041666666666668],[-0.3151041666666667],[1],[0],[0],[2.259306799969636],['text_3'],2nd priming,001,2023-10-05_22h16.26.433,lab in psych tut5,2023.1.3,60.01532791268924,
,_oo_,,,,,4,2,22,2,,,,,93.9330481000361,93.9330481000361,93.9330481000361,0.0046722000115551054,book,[-0.010416666666666666],[-0.3020833333333333],[1],[0],[0],[2.1423855000175536],['text_3'],2nd priming,001,2023-10-05_22h16.26.433,lab in psych tut5,2023.1.3,60.01532791268924,
,t_g_r,,,,,4,3,23,1,,,,,96.08468020003056,96.08468020003056,96.08468020003056,0.005797099962364882,tiger,[-0.014322916666666666],[-0.30078125],[1],[0],[0],[2.4910307999816723],['text_3'],2nd priming,001,2023-10-05_22h16.26.433,lab in psych tut5,2023.1.3,60.01532791268924,
,_ia_n_,,,,,4,4,24,4,,,,,98.57959630002733,98.57959630002733,98.57959630002733,0.00348620000295341,piano,[-0.005208333333333333],[-0.296875],[1],[0],[0],[2.6279788999818265],['text_3'],2nd priming,001,2023-10-05_22h16.26.433,lab in psych tut5,2023.1.3,60.01532791268924,
