study_words,test,trials.thisRepN,trials.thisTrialN,trials.thisN,trials.thisIndex,trials_2.thisRepN,trials_2.thisTrialN,trials_2.thisN,trials_2.thisIndex,text.started,slider.started,slider.response,slider.rt,text_2.started,textbox.started,text_3.started,mouse.started,textbox.text,mouse.x,mouse.y,mouse.leftButton,mouse.midButton,mouse.rightButton,mouse.time,mouse.clicked_name,participant,session,date,expName,psychopyVersion,frameRate,
cushion,,0,0,0,3,,,,,14.121631600020919,14.121631600020919,1.0572916666666667,2.385694299999159,,,,,,,,,,,,,3rd priming,001,2023-10-05_22h18.47.376,lab in psych tut5,2023.1.3,59.977460473284424,
tiger,,0,1,1,1,,,,,16.53564620000543,16.53564620000543,1.0572916666666667,1.2348817000165582,,,,,,,,,,,,,3rd priming,001,2023-10-05_22h18.47.376,lab in psych tut5,2023.1.3,59.977460473284424,
piano,,0,2,2,4,,,,,17.80205759999808,17.80205759999808,1.0572916666666667,0.9027660000137985,,,,,,,,,,,,,3rd priming,001,2023-10-05_22h18.47.376,lab in psych tut5,2023.1.3,59.977460473284424,
book ,,0,3,3,2,,,,,18.731680500030052,18.731680500030052,1.0572916666666667,0.787703900015913,,,,,,,,,,,,,3rd priming,001,2023-10-05_22h18.47.376,lab in psych tut5,2023.1.3,59.977460473284424,
vase,,0,4,4,0,,,,,19.547024000028614,19.547024000028614,1.0572916666666667,0.7692861999967135,,,,,,,,,,,,,3rd priming,001,2023-10-05_22h18.47.376,lab in psych tut5,2023.1.3,59.977460473284424,
piano,,1,0,5,4,,,,,20.33884440001566,20.33884440001566,1.0572916666666667,0.660183500032872,,,,,,,,,,,,,3rd priming,001,2023-10-05_22h18.47.376,lab in psych tut5,2023.1.3,59.977460473284424,
cushion,,1,1,6,3,,,,,21.022836300020572,21.022836300020572,1.0572916666666667,0.546248700004071,,,,,,,,,,,,,3rd priming,001,2023-10-05_22h18.47.376,lab in psych tut5,2023.1.3,59.977460473284424,
book ,,1,2,7,2,,,,,21.597660700033884,21.597660700033884,1.0572916666666667,0.8529993999982253,,,,,,,,,,,,,3rd priming,001,2023-10-05_22h18.47.376,lab in psych tut5,2023.1.3,59.977460473284424,
tiger,,1,3,8,1,,,,,22.47759920003591,22.47759920003591,1.0572916666666667,0.6220377999707125,,,,,,,,,,,,,3rd priming,001,2023-10-05_22h18.47.376,lab in psych tut5,2023.1.3,59.977460473284424,
vase,,1,4,9,0,,,,,23.136553000018466,23.136553000018466,1.0572916666666667,0.6828167000203393,,,,,,,,,,,,,3rd priming,001,2023-10-05_22h18.47.376,lab in psych tut5,2023.1.3,59.977460473284424,
vase,,2,0,10,0,,,,,23.84915279998677,23.84915279998677,1.0572916666666667,1.1230402999790385,,,,,,,,,,,,,3rd priming,001,2023-10-05_22h18.47.376,lab in psych tut5,2023.1.3,59.977460473284424,
book ,,2,1,11,2,,,,,24.987380900012795,24.987380900012795,1.0572916666666667,0.6435065999976359,,,,,,,,,,,,,3rd priming,001,2023-10-05_22h18.47.376,lab in psych tut5,2023.1.3,59.977460473284424,
tiger,,2,2,12,1,,,,,25.652714600029867,25.652714600029867,1.0572916666666667,0.5764113999903202,,,,,,,,,,,,,3rd priming,001,2023-10-05_22h18.47.376,lab in psych tut5,2023.1.3,59.977460473284424,
piano,,2,3,13,4,,,,,26.25312040001154,26.25312040001154,1.0572916666666667,0.5935088000260293,,,,,,,,,,,,,3rd priming,001,2023-10-05_22h18.47.376,lab in psych tut5,2023.1.3,59.977460473284424,
cushion,,2,4,14,3,,,,,26.873201499984134,26.873201499984134,1.0572916666666667,0.5767102999961935,,,,,,,,,,,,,3rd priming,001,2023-10-05_22h18.47.376,lab in psych tut5,2023.1.3,59.977460473284424,
cushion,,3,0,15,3,,,,,27.47464949998539,27.47464949998539,1.0572916666666667,0.6904789000400342,,,,,,,,,,,,,3rd priming,001,2023-10-05_22h18.47.376,lab in psych tut5,2023.1.3,59.977460473284424,
vase,,3,1,16,0,,,,,28.18790479999734,28.18790479999734,1.0572916666666667,0.6427126000053249,,,,,,,,,,,,,3rd priming,001,2023-10-05_22h18.47.376,lab in psych tut5,2023.1.3,59.977460473284424,
book ,,3,2,17,2,,,,,28.85864180000499,28.85864180000499,1.0572916666666667,0.537308800034225,,,,,,,,,,,,,3rd priming,001,2023-10-05_22h18.47.376,lab in psych tut5,2023.1.3,59.977460473284424,
tiger,,3,3,18,1,,,,,29.421336000028532,29.421336000028532,1.0572916666666667,0.6275355000398122,,,,,,,,,,,,,3rd priming,001,2023-10-05_22h18.47.376,lab in psych tut5,2023.1.3,59.977460473284424,
piano,,3,4,19,4,,,,,30.068215899984352,30.068215899984352,1.0572916666666667,0.5259719000314362,,,,,,,,,,,,,3rd priming,001,2023-10-05_22h18.47.376,lab in psych tut5,2023.1.3,59.977460473284424,
tiger,,4,0,20,1,,,,,30.614689300011378,30.614689300011378,1.0572916666666667,0.6148658000165597,,,,,,,,,,,,,3rd priming,001,2023-10-05_22h18.47.376,lab in psych tut5,2023.1.3,59.977460473284424,
book ,,4,1,21,2,,,,,31.251593200024217,31.251593200024217,1.0572916666666667,0.5793326999992132,,,,,,,,,,,,,3rd priming,001,2023-10-05_22h18.47.376,lab in psych tut5,2023.1.3,59.977460473284424,
piano,,4,2,22,4,,,,,31.865307500003837,31.865307500003837,1.0572916666666667,0.5166272000060417,,,,,,,,,,,,,3rd priming,001,2023-10-05_22h18.47.376,lab in psych tut5,2023.1.3,59.977460473284424,
vase,,4,3,23,0,,,,,32.40610600000946,32.40610600000946,1.0572916666666667,0.5266878000111319,,,,,,,,,,,,,3rd priming,001,2023-10-05_22h18.47.376,lab in psych tut5,2023.1.3,59.977460473284424,
cushion,,4,4,24,3,,,,,32.96298950002529,32.96298950002529,1.0572916666666667,0.5212865999783389,,,,,,,,,,,,,3rd priming,001,2023-10-05_22h18.47.376,lab in psych tut5,2023.1.3,59.977460473284424,
,c_s_i_n,,,,,0,0,0,3,,,,,33.52726659999462,33.52726659999462,33.52726659999462,0.015274700010195374,cushion,"[-0.4856770833333333, 0.024739583333333332]","[-0.2994791666666667, -0.3216145833333333]","[1, 1]","[0, 0]","[0, 0]","[0.22857669997029006, 4.244326799991541]",['text_3'],3rd priming,001,2023-10-05_22h18.47.376,lab in psych tut5,2023.1.3,59.977460473284424,
,_a_e,,,,,0,1,1,0,,,,,37.76714619999984,37.76714619999984,37.76714619999984,0.005263299972284585,vase,[-0.022135416666666668],[-0.28515625],[1],[0],[0],[2.8081900000106543],['text_3'],3rd priming,001,2023-10-05_22h18.47.376,lab in psych tut5,2023.1.3,59.977460473284424,
,t_g_r,,,,,0,2,2,1,,,,,40.58408330002567,40.58408330002567,40.58408330002567,0.005568999971728772,tiger,[-0.04296875],[-0.2994791666666667],[1],[0],[0],[2.4080829999875277],['text_3'],3rd priming,001,2023-10-05_22h18.47.376,lab in psych tut5,2023.1.3,59.977460473284424,
,_ia_n_,,,,,0,3,3,4,,,,,42.99838170001749,42.99838170001749,42.99838170001749,0.005368899961467832,paino,[0.0234375],[-0.3203125],[1],[0],[0],[2.558857799973339],['text_3'],3rd priming,001,2023-10-05_22h18.47.376,lab in psych tut5,2023.1.3,59.977460473284424,
,_oo_,,,,,0,4,4,2,,,,,45.563682699983474,45.563682699983474,45.563682699983474,0.004382800019811839,book,[0.048177083333333336],[-0.3098958333333333],[1],[0],[0],[3.5263700000359677],['text_3'],3rd priming,001,2023-10-05_22h18.47.376,lab in psych tut5,2023.1.3,59.977460473284424,
,_oo_,,,,,1,0,5,2,,,,,49.09449630003655,49.09449630003655,49.09449630003655,0.0012405000161379576,book,[0.0234375],[-0.2786458333333333],[1],[0],[0],[2.3132124000112526],['text_3'],3rd priming,001,2023-10-05_22h18.47.376,lab in psych tut5,2023.1.3,59.977460473284424,
,_a_e,,,,,1,1,6,0,,,,,51.41426059999503,51.41426059999503,51.41426059999503,0.004887700022663921,vase,[0.014322916666666666],[-0.2981770833333333],[1],[0],[0],[2.6420170999481343],['text_3'],3rd priming,001,2023-10-05_22h18.47.376,lab in psych tut5,2023.1.3,59.977460473284424,
,t_g_r,,,,,1,2,7,1,,,,,54.06252279999899,54.06252279999899,54.06252279999899,0.004880200023762882,tiger,"[-0.08984375, -0.024739583333333332]","[-0.2630208333333333, -0.3138020833333333]","[1, 1]","[0, 0]","[0, 0]","[2.8259714999585412, 3.609103899972979]",['text_3'],3rd priming,001,2023-10-05_22h18.47.376,lab in psych tut5,2023.1.3,59.977460473284424,
,_ia_n_,,,,,1,3,8,4,,,,,57.68210640002508,57.68210640002508,57.68210640002508,0.005722999980207533,piano,[-0.059895833333333336],[-0.2838541666666667],[1],[0],[0],[3.75779230002081],['text_3'],3rd priming,001,2023-10-05_22h18.47.376,lab in psych tut5,2023.1.3,59.977460473284424,
,c_s_i_n,,,,,1,4,9,3,,,,,61.44395689998055,61.44395689998055,61.44395689998055,0.004626200010534376,cushion,[-0.05859375],[-0.27734375],[1],[0],[0],[3.342598600022029],['text_3'],3rd priming,001,2023-10-05_22h18.47.376,lab in psych tut5,2023.1.3,59.977460473284424,
,_a_e,,,,,2,0,10,0,,,,,64.79419079999207,64.79419079999207,64.79419079999207,0.005134099978022277,vase,[-0.057291666666666664],[-0.2786458333333333],[1],[0],[0],[2.7421876000007614],['text_3'],3rd priming,001,2023-10-05_22h18.47.376,lab in psych tut5,2023.1.3,59.977460473284424,
,_oo_,,,,,2,1,11,2,,,,,67.54298939998262,67.54298939998262,67.54298939998262,0.004592199984472245,book,[-0.040364583333333336],[-0.3020833333333333],[1],[0],[0],[2.2767998999916017],['text_3'],3rd priming,001,2023-10-05_22h18.47.376,lab in psych tut5,2023.1.3,59.977460473284424,
,c_s_i_n,,,,,2,2,12,3,,,,,69.83198379998794,69.83198379998794,69.83198379998794,0.0068236999795772135,cushion,"[-0.0625, -0.04296875]","[-0.26953125, -0.28515625]","[1, 1]","[0, 0]","[0, 0]","[3.0063862000242807, 3.9228540000040084]",['text_3'],3rd priming,001,2023-10-05_22h18.47.376,lab in psych tut5,2023.1.3,59.977460473284424,
,t_g_r,,,,,2,3,13,1,,,,,73.75909260002663,73.75909260002663,73.75909260002663,0.004233699990436435,tiger,[-0.040364583333333336],[-0.3059895833333333],[1],[0],[0],[2.74388349999208],['text_3'],3rd priming,001,2023-10-05_22h18.47.376,lab in psych tut5,2023.1.3,59.977460473284424,
,_ia_n_,,,,,2,4,14,4,,,,,76.51029280002695,76.51029280002695,76.51029280002695,0.005285799968987703,piano,[-0.0026041666666666665],[-0.2825520833333333],[1],[0],[0],[2.408789999957662],['text_3'],3rd priming,001,2023-10-05_22h18.47.376,lab in psych tut5,2023.1.3,59.977460473284424,
,t_g_r,,,,,3,0,15,1,,,,,78.92568220000248,78.92568220000248,78.92568220000248,0.005218399979639798,tiger,[-0.0026041666666666665],[-0.2838541666666667],[1],[0],[0],[2.324746900005266],['text_3'],3rd priming,001,2023-10-05_22h18.47.376,lab in psych tut5,2023.1.3,59.977460473284424,
,c_s_i_n,,,,,3,1,16,3,,,,,81.2584005999961,81.2584005999961,81.2584005999961,0.004861699999310076,cushion,[0.00390625],[-0.30078125],[1],[0],[0],[3.892861200030893],['text_3'],3rd priming,001,2023-10-05_22h18.47.376,lab in psych tut5,2023.1.3,59.977460473284424,
,_a_e,,,,,3,2,17,0,,,,,85.15838149999036,85.15838149999036,85.15838149999036,0.004522599978372455,vase,[-0.06901041666666667],[-0.30859375],[1],[0],[0],[2.609370999969542],['text_3'],3rd priming,001,2023-10-05_22h18.47.376,lab in psych tut5,2023.1.3,59.977460473284424,
,_ia_n_,,,,,3,3,18,4,,,,,87.77317860000767,87.77317860000767,87.77317860000767,0.005131900019478053,piano,[-0.01953125],[-0.296875],[1],[0],[0],[2.6420166999450885],['text_3'],3rd priming,001,2023-10-05_22h18.47.376,lab in psych tut5,2023.1.3,59.977460473284424,
,_oo_,,,,,3,4,19,2,,,,,90.42189350002445,90.42189350002445,90.42189350002445,0.004620799969416112,book,[-0.0026041666666666665],[-0.30859375],[1],[0],[0],[2.74250569997821],['text_3'],3rd priming,001,2023-10-05_22h18.47.376,lab in psych tut5,2023.1.3,59.977460473284424,
,c_s_i_n,,,,,4,0,20,3,,,,,93.17201849998673,93.17201849998673,93.17201849998673,0.005053000000771135,cushion,[-0.041666666666666664],[-0.2786458333333333],[1],[0],[0],[4.192135000019334],['text_3'],3rd priming,001,2023-10-05_22h18.47.376,lab in psych tut5,2023.1.3,59.977460473284424,
,t_g_r,,,,,4,1,21,1,,,,,97.37304470001254,97.37304470001254,97.37304470001254,0.005411199992522597,tiger,[-0.026041666666666668],[-0.3020833333333333],[1],[0],[0],[3.0586580999661237],['text_3'],3rd priming,001,2023-10-05_22h18.47.376,lab in psych tut5,2023.1.3,59.977460473284424,
,_ia_n_,,,,,4,2,22,4,,,,,100.43786190001993,100.43786190001993,100.43786190001993,0.005161599954590201,piano,[0.0],[-0.32421875],[1],[0],[0],[2.808193199976813],['text_3'],3rd priming,001,2023-10-05_22h18.47.376,lab in psych tut5,2023.1.3,59.977460473284424,
,_oo_,,,,,4,3,23,2,,,,,103.25436630001059,103.25436630001059,103.25436630001059,0.004918700025882572,book,[-0.048177083333333336],[-0.30078125],[1],[0],[0],[2.5266852999920957],['text_3'],3rd priming,001,2023-10-05_22h18.47.376,lab in psych tut5,2023.1.3,59.977460473284424,
,_a_e,,,,,4,4,24,0,,,,,105.78593640000327,105.78593640000327,105.78593640000327,0.004897100036032498,vase,[0.0026041666666666665],[-0.3151041666666667],[1],[0],[0],[2.9750098999938928],['text_3'],3rd priming,001,2023-10-05_22h18.47.376,lab in psych tut5,2023.1.3,59.977460473284424,
