study_words,test,trials.thisRepN,trials.thisTrialN,trials.thisN,trials.thisIndex,trials_2.thisRepN,trials_2.thisTrialN,trials_2.thisN,trials_2.thisIndex,text.started,slider.started,slider.response,slider.rt,text_2.started,textbox.started,text_3.started,mouse.started,textbox.text,mouse.x,mouse.y,mouse.leftButton,mouse.midButton,mouse.rightButton,mouse.time,mouse.clicked_name,participant,session,date,expName,psychopyVersion,frameRate,
vase,,0,0,0,0,,,,,14.469654199958313,14.469654199958313,1.0052083333333333,1.9931930999737233,,,,,,,,,,,,,4th priming,001,2023-10-05_22h20.41.133,lab in psych tut5,2023.1.3,60.07225491991572,
tiger,,0,1,1,1,,,,,16.489089199982118,16.489089199982118,1.0052083333333333,0.7389816999784671,,,,,,,,,,,,,4th priming,001,2023-10-05_22h20.41.133,lab in psych tut5,2023.1.3,60.07225491991572,
book ,,0,2,2,2,,,,,17.26313979999395,17.26313979999395,1.0052083333333333,0.583522200002335,,,,,,,,,,,,,4th priming,001,2023-10-05_22h20.41.133,lab in psych tut5,2023.1.3,60.07225491991572,
piano,,0,3,3,4,,,,,17.86803129996406,17.86803129996406,1.0052083333333333,0.47447750001447275,,,,,,,,,,,,,4th priming,001,2023-10-05_22h20.41.133,lab in psych tut5,2023.1.3,60.07225491991572,
cushion,,0,4,4,3,,,,,18.37445000000298,18.37445000000298,1.0052083333333333,0.5551806000294164,,,,,,,,,,,,,4th priming,001,2023-10-05_22h20.41.133,lab in psych tut5,2023.1.3,60.07225491991572,
cushion,,1,0,5,3,,,,,18.957935699960217,18.957935699960217,1.0052083333333333,0.5257581000332721,,,,,,,,,,,,,4th priming,001,2023-10-05_22h20.41.133,lab in psych tut5,2023.1.3,60.07225491991572,
piano,,1,1,6,4,,,,,19.508747299958486,19.508747299958486,1.0052083333333333,0.6520217999932356,,,,,,,,,,,,,4th priming,001,2023-10-05_22h20.41.133,lab in psych tut5,2023.1.3,60.07225491991572,
book ,,1,2,7,2,,,,,20.183295599999838,20.183295599999838,1.0052083333333333,0.5455394999589771,,,,,,,,,,,,,4th priming,001,2023-10-05_22h20.41.133,lab in psych tut5,2023.1.3,60.07225491991572,
vase,,1,3,8,0,,,,,20.75706649996573,20.75706649996573,1.0052083333333333,0.5393801999744028,,,,,,,,,,,,,4th priming,001,2023-10-05_22h20.41.133,lab in psych tut5,2023.1.3,60.07225491991572,
tiger,,1,4,9,1,,,,,21.322697299998254,21.322697299998254,1.0052083333333333,0.4877363999839872,,,,,,,,,,,,,4th priming,001,2023-10-05_22h20.41.133,lab in psych tut5,2023.1.3,60.07225491991572,
book ,,2,0,10,2,,,,,21.833209199947305,21.833209199947305,1.0052083333333333,0.48717620002571493,,,,,,,,,,,,,4th priming,001,2023-10-05_22h20.41.133,lab in psych tut5,2023.1.3,60.07225491991572,
cushion,,2,1,11,3,,,,,22.33420089998981,22.33420089998981,1.0052083333333333,0.485750799998641,,,,,,,,,,,,,4th priming,001,2023-10-05_22h20.41.133,lab in psych tut5,2023.1.3,60.07225491991572,
vase,,2,2,12,0,,,,,22.849875599960797,22.849875599960797,1.0052083333333333,0.4619764999952167,,,,,,,,,,,,,4th priming,001,2023-10-05_22h20.41.133,lab in psych tut5,2023.1.3,60.07225491991572,
tiger,,2,3,13,1,,,,,23.33239679998951,23.33239679998951,1.0052083333333333,0.5125223000068218,,,,,,,,,,,,,4th priming,001,2023-10-05_22h20.41.133,lab in psych tut5,2023.1.3,60.07225491991572,
piano,,2,4,14,4,,,,,23.873622699989937,23.873622699989937,1.0052083333333333,0.48905929998727515,,,,,,,,,,,,,4th priming,001,2023-10-05_22h20.41.133,lab in psych tut5,2023.1.3,60.07225491991572,
piano,,3,0,15,4,,,,,24.387269599945284,24.387269599945284,1.0052083333333333,0.47632790001807734,,,,,,,,,,,,,4th priming,001,2023-10-05_22h20.41.133,lab in psych tut5,2023.1.3,60.07225491991572,
tiger,,3,1,16,1,,,,,24.89102489996003,24.89102489996003,1.0052083333333333,0.5873322000261396,,,,,,,,,,,,,4th priming,001,2023-10-05_22h20.41.133,lab in psych tut5,2023.1.3,60.07225491991572,
cushion,,3,2,17,3,,,,,25.506345799949486,25.506345799949486,1.0052083333333333,0.586927599972114,,,,,,,,,,,,,4th priming,001,2023-10-05_22h20.41.133,lab in psych tut5,2023.1.3,60.07225491991572,
vase,,3,3,18,0,,,,,26.11478789994726,26.11478789994726,1.0052083333333333,0.543974700034596,,,,,,,,,,,,,4th priming,001,2023-10-05_22h20.41.133,lab in psych tut5,2023.1.3,60.07225491991572,
book ,,3,4,19,2,,,,,26.679687199997716,26.679687199997716,1.0052083333333333,0.6269818000146188,,,,,,,,,,,,,4th priming,001,2023-10-05_22h20.41.133,lab in psych tut5,2023.1.3,60.07225491991572,
book ,,4,0,20,2,,,,,27.32958039996447,27.32958039996447,1.0052083333333333,0.62890020001214,,,,,,,,,,,,,4th priming,001,2023-10-05_22h20.41.133,lab in psych tut5,2023.1.3,60.07225491991572,
piano,,4,1,21,4,,,,,27.98844210000243,27.98844210000243,1.0052083333333333,0.6207147999666631,,,,,,,,,,,,,4th priming,001,2023-10-05_22h20.41.133,lab in psych tut5,2023.1.3,60.07225491991572,
tiger,,4,2,22,1,,,,,28.631183699995745,28.631183699995745,1.0052083333333333,0.5929148999857716,,,,,,,,,,,,,4th priming,001,2023-10-05_22h20.41.133,lab in psych tut5,2023.1.3,60.07225491991572,
cushion,,4,3,23,3,,,,,29.24734309996711,29.24734309996711,1.0052083333333333,0.6593613000004552,,,,,,,,,,,,,4th priming,001,2023-10-05_22h20.41.133,lab in psych tut5,2023.1.3,60.07225491991572,
vase,,4,4,24,0,,,,,29.92520629998762,29.92520629998762,1.0052083333333333,0.664658399997279,,,,,,,,,,,,,4th priming,001,2023-10-05_22h20.41.133,lab in psych tut5,2023.1.3,60.07225491991572,
,_a_e,,,,,0,0,0,0,,,,,30.616520099982154,30.616520099982154,30.616520099982154,0.010765900020487607,vase,"[-0.4986979166666667, -0.00390625]","[-0.2994791666666667, -0.2864583333333333]","[1, 1]","[0, 0]","[0, 0]","[0.3365438000182621, 3.452740899985656]",['text_3'],4th priming,001,2023-10-05_22h20.41.133,lab in psych tut5,2023.1.3,60.07225491991572,
,c_s_i_n,,,,,0,1,1,3,,,,,34.07804519997444,34.07804519997444,34.07804519997444,0.004779600014444441,cushion,"[-0.06901041666666667, -0.052083333333333336]","[-0.2708333333333333, -0.296875]","[1, 1]","[0, 0]","[0, 0]","[2.5918322000070475, 3.2914000999880955]",['text_3'],4th priming,001,2023-10-05_22h20.41.133,lab in psych tut5,2023.1.3,60.07225491991572,
,t_g_r,,,,,0,2,2,1,,,,,37.37649479997344,37.37649479997344,37.37649479997344,0.004440699995029718,tiger,[0.014322916666666666],[-0.3072916666666667],[1],[0],[0],[2.7594262999482453],['text_3'],4th priming,001,2023-10-05_22h20.41.133,lab in psych tut5,2023.1.3,60.07225491991572,
,_oo_,,,,,0,3,3,2,,,,,40.14185409998754,40.14185409998754,40.14185409998754,0.00470260001020506,book,[-0.026041666666666668],[-0.3151041666666667],[1],[0],[0],[2.3592539000092074],['text_3'],4th priming,001,2023-10-05_22h20.41.133,lab in psych tut5,2023.1.3,60.07225491991572,
,_ia_n_,,,,,0,4,4,4,,,,,42.50803279998945,42.50803279998945,42.50803279998945,0.0048782999510876834,piano,[0.0],[-0.2877604166666667],[1],[0],[0],[2.626642399991397],['text_3'],4th priming,001,2023-10-05_22h20.41.133,lab in psych tut5,2023.1.3,60.07225491991572,
,_oo_,,,,,1,0,5,2,,,,,45.141575199959334,45.141575199959334,45.141575199959334,0.004351199953816831,book,[-0.0390625],[-0.3229166666666667],[1],[0],[0],[2.408880400005728],['text_3'],4th priming,001,2023-10-05_22h20.41.133,lab in psych tut5,2023.1.3,60.07225491991572,
,c_s_i_n,,,,,1,1,6,3,,,,,47.55774289998226,47.55774289998226,47.55774289998226,0.004817000008188188,cushion,[-0.052083333333333336],[-0.30859375],[1],[0],[0],[3.6096348999999464],['text_3'],4th priming,001,2023-10-05_22h20.41.133,lab in psych tut5,2023.1.3,60.07225491991572,
,_a_e,,,,,1,2,7,0,,,,,51.17483309999807,51.17483309999807,51.17483309999807,0.004685299994889647,vase,[-0.0234375],[-0.3268229166666667],[1],[0],[0],[2.9754362999810837],['text_3'],4th priming,001,2023-10-05_22h20.41.133,lab in psych tut5,2023.1.3,60.07225491991572,
,t_g_r,,,,,1,3,8,1,,,,,54.15714179998031,54.15714179998031,54.15714179998031,0.005252000002656132,tiger,[-0.0234375],[-0.3268229166666667],[1],[0],[0],[2.40920150000602],['text_3'],4th priming,001,2023-10-05_22h20.41.133,lab in psych tut5,2023.1.3,60.07225491991572,
,_ia_n_,,,,,1,4,9,4,,,,,56.573679799970705,56.573679799970705,56.573679799970705,0.004866200033575296,piano,[-0.018229166666666668],[-0.30859375],[1],[0],[0],[3.375485500029754],['text_3'],4th priming,001,2023-10-05_22h20.41.133,lab in psych tut5,2023.1.3,60.07225491991572,
,t_g_r,,,,,2,0,10,1,,,,,59.95608069997979,59.95608069997979,59.95608069997979,0.0051515999948605895,tiger,[-0.009114583333333334],[-0.3229166666666667],[1],[0],[0],[2.8921055999817327],['text_3'],4th priming,001,2023-10-05_22h20.41.133,lab in psych tut5,2023.1.3,60.07225491991572,
,_oo_,,,,,2,1,11,2,,,,,62.85265429998981,62.85265429998981,62.85265429998981,0.0041594000067561865,book,[-0.044270833333333336],[-0.3111979166666667],[1],[0],[0],[2.443468599987682],['text_3'],4th priming,001,2023-10-05_22h20.41.133,lab in psych tut5,2023.1.3,60.07225491991572,
,c_s_i_n,,,,,2,2,12,3,,,,,65.30588089994853,65.30588089994853,65.30588089994853,0.005090299993753433,cushion,[-0.0013020833333333333],[-0.3020833333333333],[1],[0],[0],[4.841547699994408],['text_3'],4th priming,001,2023-10-05_22h20.41.133,lab in psych tut5,2023.1.3,60.07225491991572,
,_a_e,,,,,2,3,13,0,,,,,70.15337389998604,70.15337389998604,70.15337389998604,0.004361000028438866,vase,[-0.014322916666666666],[-0.3138020833333333],[1],[0],[0],[4.276171199977398],['text_3'],4th priming,001,2023-10-05_22h20.41.133,lab in psych tut5,2023.1.3,60.07225491991572,
,_ia_n_,,,,,2,4,14,4,,,,,74.43584659998305,74.43584659998305,74.43584659998305,0.004963100014720112,piano,[-0.006510416666666667],[-0.2955729166666667],[1],[0],[0],[2.359679799992591],['text_3'],4th priming,001,2023-10-05_22h20.41.133,lab in psych tut5,2023.1.3,60.07225491991572,
,t_g_r,,,,,3,0,15,1,,,,,76.80417229997693,76.80417229997693,76.80417229997693,0.005824400053825229,tiger,[-0.006510416666666667],[-0.296875],[1],[0],[0],[2.840491099981591],['text_3'],4th priming,001,2023-10-05_22h20.41.133,lab in psych tut5,2023.1.3,60.07225491991572,
,_ia_n_,,,,,3,1,16,4,,,,,79.65067139995517,79.65067139995517,79.65067139995517,0.004994100017938763,paino,[-0.006510416666666667],[-0.296875],[1],[0],[0],[2.2427540000062436],['text_3'],4th priming,001,2023-10-05_22h20.41.133,lab in psych tut5,2023.1.3,60.07225491991572,
,c_s_i_n,,,,,3,2,17,3,,,,,81.90261989994906,81.90261989994906,81.90261989994906,0.00523889996111393,cushion,[0.010416666666666666],[-0.2994791666666667],[1],[0],[0],[3.2251858999952674],['text_3'],4th priming,001,2023-10-05_22h20.41.133,lab in psych tut5,2023.1.3,60.07225491991572,
,_oo_,,,,,3,3,18,2,,,,,85.13544589997036,85.13544589997036,85.13544589997036,0.005026699975132942,book,[-0.041666666666666664],[-0.3190104166666667],[1],[0],[0],[2.475373400026001],['text_3'],4th priming,001,2023-10-05_22h20.41.133,lab in psych tut5,2023.1.3,60.07225491991572,
,_a_e,,,,,3,4,19,0,,,,,87.61645309999585,87.61645309999585,87.61645309999585,0.004732800007332116,vase,[-0.0013020833333333333],[-0.2916666666666667],[1],[0],[0],[2.526161800022237],['text_3'],4th priming,001,2023-10-05_22h20.41.133,lab in psych tut5,2023.1.3,60.07225491991572,
,_ia_n_,,,,,4,0,20,4,,,,,90.15104450000217,90.15104450000217,90.15104450000217,0.005484699970111251,piano,[0.0],[-0.2916666666666667],[1],[0],[0],[2.5923925999668427],['text_3'],4th priming,001,2023-10-05_22h20.41.133,lab in psych tut5,2023.1.3,60.07225491991572,
,t_g_r,,,,,4,1,21,1,,,,,92.75267169997096,92.75267169997096,92.75267169997096,0.005159699998330325,tiger,[-0.006510416666666667],[-0.2994791666666667],[1],[0],[0],[4.807268899981864],['text_3'],4th priming,001,2023-10-05_22h20.41.133,lab in psych tut5,2023.1.3,60.07225491991572,
,c_s_i_n,,,,,4,2,22,3,,,,,97.56441269995412,97.56441269995412,97.56441269995412,0.005220599996391684,cushion,[-0.032552083333333336],[-0.29296875],[1],[0],[0],[2.7093483999487944],['text_3'],4th priming,001,2023-10-05_22h20.41.133,lab in psych tut5,2023.1.3,60.07225491991572,
,_oo_,,,,,4,3,23,2,,,,,100.28063909994671,100.28063909994671,100.28063909994671,0.004451899963896722,book,[-0.010416666666666666],[-0.3033854166666667],[1],[0],[0],[2.376355100015644],['text_3'],4th priming,001,2023-10-05_22h20.41.133,lab in psych tut5,2023.1.3,60.07225491991572,
,_a_e,,,,,4,4,24,0,,,,,102.66467069997452,102.66467069997452,102.66467069997452,0.005257499986328185,vase,[-0.005208333333333333],[-0.3033854166666667],[1],[0],[0],[2.5747902000439353],['text_3'],4th priming,001,2023-10-05_22h20.41.133,lab in psych tut5,2023.1.3,60.07225491991572,
